stimulus_image,correct_response,thisN,thisTrialN,thisRepN,key_resp.keys,key_resp.corr,key_resp.rt,key_resp.duration,loop.thisRepN,loop.thisTrialN,loop.thisN,loop.thisIndex,thisRow.t,notes,guide.started,instructions.started,ins_resp.started,guide.stopped,ins_resp.keys,ins_resp.rt,ins_resp.duration,guide_2.started,text.started,key_resp_2.started,guide_2.stopped,key_resp_2.keys,key_resp_2.rt,key_resp_2.duration,trial.started,fixation.started,image.started,key_resp.started,fixation.stopped,image.stopped,trial.stopped,loop.key_resp.keys,loop.key_resp.corr,key_resp.stopped,loop.key_resp.rt,loop.key_resp.duration,participant,session,date,expName,psychopyVersion,frameRate,expStart,
,,,,,,,,,,,,,,,0.006888300005812198,0.011421900009736419,0.011421900009736419,36.97954709996702,space,36.91296579997288,None,,,,,,,,,,,,,,,,,,,,A19,118,2025-04-07_21h59.00.857,416_EXPERIMENT_PSYCHOPY_AU2220019_AU2220225,2024.2.4,59.65690122844315,2025-04-07 22h00.38.051534 +0530,
,,,,,,,,,,,,,,,,,,,,,,36.97964629996568,36.98596199997701,36.98596199997701,41.88015599997016,space,4.884838099998888,None,,,,,,,,,,,,,A19,118,2025-04-07_21h59.00.857,416_EXPERIMENT_PSYCHOPY_AU2220019_AU2220225,2024.2.4,59.65690122844315,2025-04-07 22h00.38.051534 +0530,
surprise_upper_blur.jpg,s,0,0,0,None,0,,,0,0,0,4,42.02146689995425,,,,,,,,,,,,,,,,42.015288099995814,42.02146689995425,43.40315649996046,43.40315649996046,43.52521140000317,43.908077400003094,44.14179739996325,None,0,,,,A19,118,2025-04-07_21h59.00.857,416_EXPERIMENT_PSYCHOPY_AU2220019_AU2220225,2024.2.4,59.65690122844315,2025-04-07 22h00.38.051534 +0530,
surprise_lower_blur.jpg,s,1,1,0,None,0,,,0,1,1,5,44.16017489996739,,,,,,,,,,,,,,,,44.156056999985594,44.16017489996739,45.641878099995665,45.641878099995665,45.67498989996966,46.14121510001132,46.37635549996048,None,0,46.39359930000501,,,A19,118,2025-04-07_21h59.00.857,416_EXPERIMENT_PSYCHOPY_AU2220019_AU2220225,2024.2.4,59.65690122844315,2025-04-07 22h00.38.051534 +0530,
fear_lower_blur.jpg,f,2,2,0,f,1,0.5401958999573253,None,0,2,2,3,46.39359930000501,,,,,,,,,,,,,,,,46.39004929998191,46.39359930000501,47.89188019995345,47.89188019995345,47.908573399996385,48.39119880000362,48.44362179999007,f,1,,0.5401958999573253,None,A19,118,2025-04-07_21h59.00.857,416_EXPERIMENT_PSYCHOPY_AU2220019_AU2220225,2024.2.4,59.65690122844315,2025-04-07 22h00.38.051534 +0530,
fear.jpg,f,3,3,0,f,1,0.4520413999562152,None,0,3,3,0,48.46234879997792,,,,,,,,,,,,,,,,48.45778040000005,48.46234879997792,49.95865960000083,49.95865960000083,49.97513459995389,,50.42789829999674,f,1,,0.4520413999562152,None,A19,118,2025-04-07_21h59.00.857,416_EXPERIMENT_PSYCHOPY_AU2220019_AU2220225,2024.2.4,59.65690122844315,2025-04-07 22h00.38.051534 +0530,
fear_upper_blur.jpg,f,4,4,0,f,1,0.5642731999978423,None,0,4,4,2,50.44601439998951,,,,,,,,,,,,,,,,50.44120820000535,50.44601439998951,51.942316000000574,51.942316000000574,51.9586932999664,52.44149629998719,52.5101827000035,f,1,,0.5642731999978423,None,A19,118,2025-04-07_21h59.00.857,416_EXPERIMENT_PSYCHOPY_AU2220019_AU2220225,2024.2.4,59.65690122844315,2025-04-07 22h00.38.051534 +0530,
surprise.jpg,s,5,5,0,f,0,0.5405897999880835,None,0,5,5,1,52.52922560001025,,,,,,,,,,,,,,,,52.5245173999574,52.52922560001025,54.02619509998476,54.02619509998476,54.042042599990964,54.54126329999417,54.57878169999458,f,0,,0.5405897999880835,None,A19,118,2025-04-07_21h59.00.857,416_EXPERIMENT_PSYCHOPY_AU2220019_AU2220225,2024.2.4,59.65690122844315,2025-04-07 22h00.38.051534 +0530,
surprise.jpg,s,6,0,1,f,0,0.36235010001109913,None,1,0,6,1,54.60321099997964,,,,,,,,,,,,,,,,54.597766699967906,54.60321099997964,56.092569099972025,56.092569099972025,56.10910989996046,,56.46053889999166,f,0,,0.36235010001109913,None,A19,118,2025-04-07_21h59.00.857,416_EXPERIMENT_PSYCHOPY_AU2220019_AU2220225,2024.2.4,59.65690122844315,2025-04-07 22h00.38.051534 +0530,
surprise_lower_blur.jpg,s,7,1,1,s,1,0.45199759997194633,None,1,1,7,5,56.47860289999517,,,,,,,,,,,,,,,,56.47410739999032,56.47860289999517,57.975074899964966,57.975074899964966,57.99156519997632,,58.43294520000927,s,1,,0.45199759997194633,None,A19,118,2025-04-07_21h59.00.857,416_EXPERIMENT_PSYCHOPY_AU2220019_AU2220225,2024.2.4,59.65690122844315,2025-04-07 22h00.38.051534 +0530,
surprise_upper_blur.jpg,s,8,2,1,f,0,0.6983890000265092,None,1,2,8,4,58.466031899966765,,,,,,,,,,,,,,,,58.45699719997356,58.466031899966765,59.94304549996741,59.94304549996741,59.97478409996256,60.44129309995333,60.64945699996315,f,0,,0.6983890000265092,None,A19,118,2025-04-07_21h59.00.857,416_EXPERIMENT_PSYCHOPY_AU2220019_AU2220225,2024.2.4,59.65690122844315,2025-04-07 22h00.38.051534 +0530,
fear_upper_blur.jpg,f,9,3,1,f,1,0.5536214000312611,None,1,3,9,2,60.68338699999731,,,,,,,,,,,,,,,,60.67520900000818,60.68338699999731,62.159059899975546,62.159059899975546,62.191543799999636,62.65811640000902,62.7270978000015,f,1,,0.5536214000312611,None,A19,118,2025-04-07_21h59.00.857,416_EXPERIMENT_PSYCHOPY_AU2220019_AU2220225,2024.2.4,59.65690122844315,2025-04-07 22h00.38.051534 +0530,
fear_lower_blur.jpg,f,10,4,1,f,1,0.3107670999597758,None,1,4,10,3,62.74480200000107,,,,,,,,,,,,,,,,62.74048469995614,62.74480200000107,64.2420037999982,64.2420037999982,64.25864019995788,,64.56242569995811,f,1,,0.3107670999597758,None,A19,118,2025-04-07_21h59.00.857,416_EXPERIMENT_PSYCHOPY_AU2220019_AU2220225,2024.2.4,59.65690122844315,2025-04-07 22h00.38.051534 +0530,
fear.jpg,f,11,5,1,s,0,0.39731589995790273,None,1,5,11,0,64.58723030000692,,,,,,,,,,,,,,,,64.58198630000697,64.58723030000692,66.07561439997517,66.07561439997517,66.092083800002,,66.48054909997154,s,0,,0.39731589995790273,None,A19,118,2025-04-07_21h59.00.857,416_EXPERIMENT_PSYCHOPY_AU2220019_AU2220225,2024.2.4,59.65690122844315,2025-04-07 22h00.38.051534 +0530,
fear_upper_blur.jpg,f,12,0,2,f,1,0.2862827999633737,None,2,0,12,2,66.51543149998179,,,,,,,,,,,,,,,,66.50534569995943,66.51543149998179,67.99193049996393,67.99193049996393,68.02549779997207,,68.29429879999952,f,1,,0.2862827999633737,None,A19,118,2025-04-07_21h59.00.857,416_EXPERIMENT_PSYCHOPY_AU2220019_AU2220225,2024.2.4,59.65690122844315,2025-04-07 22h00.38.051534 +0530,
fear.jpg,f,13,1,2,f,1,0.4479272000025958,None,2,1,13,0,68.33345649996772,,,,,,,,,,,,,,,,68.3186243000091,68.33345649996772,69.80954749998637,69.80954749998637,69.84197239996865,,70.26401980000082,f,1,,0.4479272000025958,None,A19,118,2025-04-07_21h59.00.857,416_EXPERIMENT_PSYCHOPY_AU2220019_AU2220225,2024.2.4,59.65690122844315,2025-04-07 22h00.38.051534 +0530,
fear_lower_blur.jpg,f,14,2,2,None,0,,,2,2,14,3,70.29691279999679,,,,,,,,,,,,,,,,70.28779889998259,70.29691279999679,71.7747839000076,71.7747839000076,71.808592699992,72.27517799998168,72.51142659998732,None,0,72.54222810000647,,,A19,118,2025-04-07_21h59.00.857,416_EXPERIMENT_PSYCHOPY_AU2220019_AU2220225,2024.2.4,59.65690122844315,2025-04-07 22h00.38.051534 +0530,
surprise_lower_blur.jpg,s,15,3,2,f,0,0.2992314000148326,None,2,3,15,5,72.54222810000647,,,,,,,,,,,,,,,,72.53589329996612,72.54222810000647,74.02612989995396,74.02612989995396,74.04238830000395,,74.32884360000025,f,0,,0.2992314000148326,None,A19,118,2025-04-07_21h59.00.857,416_EXPERIMENT_PSYCHOPY_AU2220019_AU2220225,2024.2.4,59.65690122844315,2025-04-07 22h00.38.051534 +0530,
surprise_upper_blur.jpg,s,16,4,2,f,0,0.4212890000198968,None,2,4,16,4,74.34703259996604,,,,,,,,,,,,,,,,74.34221490001073,74.34703259996604,75.84211440000217,75.84211440000217,75.85829499998363,,76.27983509999467,f,0,,0.4212890000198968,None,A19,118,2025-04-07_21h59.00.857,416_EXPERIMENT_PSYCHOPY_AU2220019_AU2220225,2024.2.4,59.65690122844315,2025-04-07 22h00.38.051534 +0530,
surprise.jpg,s,17,5,2,s,1,0.518759400001727,None,2,5,17,1,76.30501959996764,,,,,,,,,,,,,,,,76.29787199996645,76.30501959996764,77.7922561999876,77.7922561999876,77.80850529996678,78.29150890000165,78.32951129996218,s,1,,0.518759400001727,None,A19,118,2025-04-07_21h59.00.857,416_EXPERIMENT_PSYCHOPY_AU2220019_AU2220225,2024.2.4,59.65690122844315,2025-04-07 22h00.38.051534 +0530,
fear_upper_blur.jpg,f,18,0,3,f,1,0.3828358000027947,None,3,0,18,2,78.35399340000004,,,,,,,,,,,,,,,,78.34945380000863,78.35399340000004,79.84254240000155,79.84254240000155,79.85939100000542,,80.23400219995528,f,1,,0.3828358000027947,None,A19,118,2025-04-07_21h59.00.857,416_EXPERIMENT_PSYCHOPY_AU2220019_AU2220225,2024.2.4,59.65690122844315,2025-04-07 22h00.38.051534 +0530,
surprise.jpg,s,19,1,3,s,1,0.5264792999951169,None,3,1,19,1,80.2581609999761,,,,,,,,,,,,,,,,80.25244459998794,80.2581609999761,81.74266859999625,81.74266859999625,81.75890089996392,82.24156210001092,82.27985900000203,s,1,,0.5264792999951169,None,A19,118,2025-04-07_21h59.00.857,416_EXPERIMENT_PSYCHOPY_AU2220019_AU2220225,2024.2.4,59.65690122844315,2025-04-07 22h00.38.051534 +0530,
fear.jpg,f,20,2,3,s,0,0.551770799967926,None,3,2,20,0,82.31512019998627,,,,,,,,,,,,,,,,82.30666439997731,82.31512019998627,83.79206959996372,83.79206959996372,83.82535569998436,84.29118929995457,84.36428519996116,s,0,,0.551770799967926,None,A19,118,2025-04-07_21h59.00.857,416_EXPERIMENT_PSYCHOPY_AU2220019_AU2220225,2024.2.4,59.65690122844315,2025-04-07 22h00.38.051534 +0530,
surprise_upper_blur.jpg,s,21,3,3,f,0,0.5829636999987997,None,3,3,21,4,84.38657709996914,,,,,,,,,,,,,,,,84.38202399999136,84.38657709996914,85.87544779997552,85.87544779997552,85.89194929995574,86.37476159998914,86.46367939998163,f,0,,0.5829636999987997,None,A19,118,2025-04-07_21h59.00.857,416_EXPERIMENT_PSYCHOPY_AU2220019_AU2220225,2024.2.4,59.65690122844315,2025-04-07 22h00.38.051534 +0530,
fear_lower_blur.jpg,f,22,4,3,f,1,0.33623710001120344,None,3,4,22,3,86.49314719997346,,,,,,,,,,,,,,,,86.48505969997495,86.49314719997346,87.97612189996289,87.97612189996289,87.99255019996781,,88.33043759997236,f,1,,0.33623710001120344,None,A19,118,2025-04-07_21h59.00.857,416_EXPERIMENT_PSYCHOPY_AU2220019_AU2220225,2024.2.4,59.65690122844315,2025-04-07 22h00.38.051534 +0530,
surprise_lower_blur.jpg,s,23,5,3,s,1,0.47582660004263744,None,3,5,23,5,88.36364900000626,,,,,,,,,,,,,,,,88.35637409996707,88.36364900000626,89.84276639996096,89.84276639996096,89.87591159995645,90.3670148999663,90.33102230000077,s,1,,0.47582660004263744,None,A19,118,2025-04-07_21h59.00.857,416_EXPERIMENT_PSYCHOPY_AU2220019_AU2220225,2024.2.4,59.65690122844315,2025-04-07 22h00.38.051534 +0530,
fear.jpg,f,24,0,4,s,0,0.6424284999957308,None,4,0,24,0,90.3670148999663,,,,,,,,,,,,,,,,90.35780469997553,90.3670148999663,91.84230389998993,91.84230389998993,91.8754180999822,92.34184710000409,92.493539099989,s,0,,0.6424284999957308,None,A19,118,2025-04-07_21h59.00.857,416_EXPERIMENT_PSYCHOPY_AU2220019_AU2220225,2024.2.4,59.65690122844315,2025-04-07 22h00.38.051534 +0530,
surprise_upper_blur.jpg,s,25,1,4,f,0,0.3066834000055678,None,4,1,25,4,92.51378619996831,,,,,,,,,,,,,,,,92.50759890000336,92.51378619996831,94.00910460000159,94.00910460000159,94.02573009999469,,94.32967429998098,f,0,,0.3066834000055678,None,A19,118,2025-04-07_21h59.00.857,416_EXPERIMENT_PSYCHOPY_AU2220019_AU2220225,2024.2.4,59.65690122844315,2025-04-07 22h00.38.051534 +0530,
surprise_lower_blur.jpg,s,26,2,4,s,1,0.41880899999523535,None,4,2,26,5,94.36467619996984,,,,,,,,,,,,,,,,94.35380769998301,94.36467619996984,95.84255159995519,95.84255159995519,95.87575839995407,,96.27707449998707,s,1,,0.41880899999523535,None,A19,118,2025-04-07_21h59.00.857,416_EXPERIMENT_PSYCHOPY_AU2220019_AU2220225,2024.2.4,59.65690122844315,2025-04-07 22h00.38.051534 +0530,
fear_upper_blur.jpg,f,27,3,4,f,1,0.6084796999930404,None,4,3,27,2,96.29545929998858,,,,,,,,,,,,,,,,96.29076850001002,96.29545929998858,97.79219659999944,97.79219659999944,97.8090058999951,98.29200169997057,98.41261489997851,f,1,,0.6084796999930404,None,A19,118,2025-04-07_21h59.00.857,416_EXPERIMENT_PSYCHOPY_AU2220019_AU2220225,2024.2.4,59.65690122844315,2025-04-07 22h00.38.051534 +0530,
fear_lower_blur.jpg,f,28,4,4,f,1,0.46381149999797344,None,4,4,28,3,98.44603399996413,,,,,,,,,,,,,,,,98.43700139998691,98.44603399996413,99.92628969997168,99.92628969997168,99.95874679996632,,100.3944812999689,f,1,,0.46381149999797344,None,A19,118,2025-04-07_21h59.00.857,416_EXPERIMENT_PSYCHOPY_AU2220019_AU2220225,2024.2.4,59.65690122844315,2025-04-07 22h00.38.051534 +0530,
surprise.jpg,s,29,5,4,s,1,0.575704799965024,None,4,5,29,1,100.41407110000728,,,,,,,,,,,,,,,,100.40888609999092,100.41407110000728,101.90864300000248,101.90864300000248,101.92571179999504,102.40868659998523,102.49391479999758,s,1,,0.575704799965024,None,A19,118,2025-04-07_21h59.00.857,416_EXPERIMENT_PSYCHOPY_AU2220019_AU2220225,2024.2.4,59.65690122844315,2025-04-07 22h00.38.051534 +0530,
surprise_upper_blur.jpg,s,30,0,5,f,0,0.5339811000158079,None,5,0,30,4,102.51285439997446,,,,,,,,,,,,,,,,102.50733039999614,102.51285439997446,104.00870239996584,104.00870239996584,104.02515669999411,104.50833469995996,104.56007770000724,f,0,,0.5339811000158079,None,A19,118,2025-04-07_21h59.00.857,416_EXPERIMENT_PSYCHOPY_AU2220019_AU2220225,2024.2.4,59.65690122844315,2025-04-07 22h00.38.051534 +0530,
fear_upper_blur.jpg,f,31,1,5,f,1,0.57945339998696,None,5,1,31,2,104.58768199995393,,,,,,,,,,,,,,,,104.58032929996261,104.58768199995393,106.07510499999626,106.07510499999626,106.09188179997727,106.57458039995981,106.66610729997046,f,1,,0.57945339998696,None,A19,118,2025-04-07_21h59.00.857,416_EXPERIMENT_PSYCHOPY_AU2220019_AU2220225,2024.2.4,59.65690122844315,2025-04-07 22h00.38.051534 +0530,
surprise_lower_blur.jpg,s,32,2,5,s,1,0.307760399999097,None,5,2,32,5,106.70281980000436,,,,,,,,,,,,,,,,106.69361169997137,106.70281980000436,108.17542260000482,108.17542260000482,108.20821279997472,,108.49676619999809,s,1,,0.307760399999097,None,A19,118,2025-04-07_21h59.00.857,416_EXPERIMENT_PSYCHOPY_AU2220019_AU2220225,2024.2.4,59.65690122844315,2025-04-07 22h00.38.051534 +0530,
fear.jpg,f,33,3,5,f,1,0.29836950002936646,None,5,3,33,0,108.53138130001025,,,,,,,,,,,,,,,,108.52193729998544,108.53138130001025,110.0083570999559,110.0083570999559,110.04157100000884,,110.31435780000174,f,1,,0.29836950002936646,None,A19,118,2025-04-07_21h59.00.857,416_EXPERIMENT_PSYCHOPY_AU2220019_AU2220225,2024.2.4,59.65690122844315,2025-04-07 22h00.38.051534 +0530,
fear_lower_blur.jpg,f,34,4,5,s,0,0.5525445999810472,None,5,4,34,3,110.345211799955,,,,,,,,,,,,,,,,110.33684989996254,110.345211799955,111.82535160001134,111.82535160001134,111.85854699998163,112.32488739996916,112.39333519997308,s,0,,0.5525445999810472,None,A19,118,2025-04-07_21h59.00.857,416_EXPERIMENT_PSYCHOPY_AU2220019_AU2220225,2024.2.4,59.65690122844315,2025-04-07 22h00.38.051534 +0530,
surprise.jpg,s,35,5,5,f,0,0.4021385000087321,None,5,5,35,1,112.41201159998309,,,,,,,,,,,,,,,,112.40763430000516,112.41201159998309,113.90901840000879,113.90901840000879,113.9253333999659,,114.32743669999763,f,0,,0.4021385000087321,None,A19,118,2025-04-07_21h59.00.857,416_EXPERIMENT_PSYCHOPY_AU2220019_AU2220225,2024.2.4,59.65690122844315,2025-04-07 22h00.38.051534 +0530,
fear_lower_blur.jpg,f,36,0,6,None,0,,,6,0,36,3,114.34517029998824,,,,,,,,,,,,,,,,114.34090780001134,114.34517029998824,115.84143239998957,115.84143239998957,115.85807059996296,116.34186939999927,116.5758177000098,None,0,116.59322290000273,,,A19,118,2025-04-07_21h59.00.857,416_EXPERIMENT_PSYCHOPY_AU2220019_AU2220225,2024.2.4,59.65690122844315,2025-04-07 22h00.38.051534 +0530,
fear_upper_blur.jpg,f,37,1,6,f,1,0.2560161000001244,None,6,1,37,2,116.59322290000273,,,,,,,,,,,,,,,,116.5893205999746,116.59322290000273,118.09190870000748,118.09190870000748,118.10811400000239,,118.36396220000461,f,1,,0.2560161000001244,None,A19,118,2025-04-07_21h59.00.857,416_EXPERIMENT_PSYCHOPY_AU2220019_AU2220225,2024.2.4,59.65690122844315,2025-04-07 22h00.38.051534 +0530,
fear.jpg,f,38,2,6,s,0,0.5302189000067301,None,6,2,38,0,118.40052119997563,,,,,,,,,,,,,,,,118.39114479999989,118.40052119997563,119.87522659997921,119.87522659997921,119.90854909998598,120.37420269998256,120.41016669996316,s,0,,0.5302189000067301,None,A19,118,2025-04-07_21h59.00.857,416_EXPERIMENT_PSYCHOPY_AU2220019_AU2220225,2024.2.4,59.65690122844315,2025-04-07 22h00.38.051534 +0530,
surprise_upper_blur.jpg,s,39,3,6,f,0,0.2715906999655999,None,6,3,39,4,120.42803279997315,,,,,,,,,,,,,,,,120.42383479996352,120.42803279997315,121.92482559999917,121.92482559999917,121.94215019996045,,122.21257499995409,f,0,,0.2715906999655999,None,A19,118,2025-04-07_21h59.00.857,416_EXPERIMENT_PSYCHOPY_AU2220019_AU2220225,2024.2.4,59.65690122844315,2025-04-07 22h00.38.051534 +0530,
surprise_lower_blur.jpg,s,40,4,6,s,1,0.535697000043001,None,6,4,40,5,122.23722750000888,,,,,,,,,,,,,,,,122.22971290000714,122.23722750000888,123.72490989998914,123.72490989998914,123.74150529998587,124.22510239999974,124.27680859999964,s,1,,0.535697000043001,None,A19,118,2025-04-07_21h59.00.857,416_EXPERIMENT_PSYCHOPY_AU2220019_AU2220225,2024.2.4,59.65690122844315,2025-04-07 22h00.38.051534 +0530,
surprise.jpg,s,41,5,6,f,0,0.3219530999776907,None,6,5,41,1,124.29566289996728,,,,,,,,,,,,,,,,124.2913534999825,124.29566289996728,125.79157439997653,125.79157439997653,125.80842469999334,,126.13000469998224,f,0,,0.3219530999776907,None,A19,118,2025-04-07_21h59.00.857,416_EXPERIMENT_PSYCHOPY_AU2220019_AU2220225,2024.2.4,59.65690122844315,2025-04-07 22h00.38.051534 +0530,
fear_upper_blur.jpg,f,42,0,7,f,1,0.5094785999972373,None,7,0,42,2,126.15135469997767,,,,,,,,,,,,,,,,126.14615719998255,126.15135469997767,127.64220169995679,127.64220169995679,127.65811590000521,128.14168649999192,128.16087749996223,f,1,,0.5094785999972373,None,A19,118,2025-04-07_21h59.00.857,416_EXPERIMENT_PSYCHOPY_AU2220019_AU2220225,2024.2.4,59.65690122844315,2025-04-07 22h00.38.051534 +0530,
surprise.jpg,s,43,1,7,f,0,0.2851549999904819,None,7,1,43,1,128.17996300000232,,,,,,,,,,,,,,,,128.17495919996873,128.17996300000232,129.67526629997883,129.67526629997883,129.69241699995473,,129.96620769996662,f,0,,0.2851549999904819,None,A19,118,2025-04-07_21h59.00.857,416_EXPERIMENT_PSYCHOPY_AU2220019_AU2220225,2024.2.4,59.65690122844315,2025-04-07 22h00.38.051534 +0530,
fear_lower_blur.jpg,f,44,2,7,f,1,0.3834228999912739,None,7,2,44,3,129.9914813999785,,,,,,,,,,,,,,,,129.98531540000113,129.9914813999785,131.47524850000627,131.47524850000627,131.4922883999534,,131.86224809999112,f,1,,0.3834228999912739,None,A19,118,2025-04-07_21h59.00.857,416_EXPERIMENT_PSYCHOPY_AU2220019_AU2220225,2024.2.4,59.65690122844315,2025-04-07 22h00.38.051534 +0530,
surprise_lower_blur.jpg,s,45,3,7,f,0,0.44197210000129417,None,7,3,45,5,131.88090419996297,,,,,,,,,,,,,,,,131.8759748999728,131.88090419996297,133.37618719995953,133.37618719995953,133.39207790000364,,133.83091600000625,f,0,,0.44197210000129417,None,A19,118,2025-04-07_21h59.00.857,416_EXPERIMENT_PSYCHOPY_AU2220019_AU2220225,2024.2.4,59.65690122844315,2025-04-07 22h00.38.051534 +0530,
fear.jpg,f,46,4,7,s,0,0.6373253999627195,None,7,4,46,0,133.8664010000066,,,,,,,,,,,,,,,,133.85740689997328,133.8664010000066,135.3423996999627,135.3423996999627,135.37541539996164,135.841558599961,135.99610549997305,s,0,,0.6373253999627195,None,A19,118,2025-04-07_21h59.00.857,416_EXPERIMENT_PSYCHOPY_AU2220019_AU2220225,2024.2.4,59.65690122844315,2025-04-07 22h00.38.051534 +0530,
surprise_upper_blur.jpg,s,47,5,7,f,0,0.23474850005004555,None,7,5,47,4,136.01896809996106,,,,,,,,,,,,,,,,136.01341139996657,136.01896809996106,137.50900319998618,137.50900319998618,137.52548769995337,,137.7606452999753,f,0,,0.23474850005004555,None,A19,118,2025-04-07_21h59.00.857,416_EXPERIMENT_PSYCHOPY_AU2220019_AU2220225,2024.2.4,59.65690122844315,2025-04-07 22h00.38.051534 +0530,
fear_upper_blur.jpg,f,48,0,8,f,1,0.26904519996605814,None,8,0,48,2,137.77920429996448,,,,,,,,,,,,,,,,137.7744728999678,137.77920429996448,139.27542899997206,139.27542899997206,139.29199009999866,,139.5607275000075,f,1,,0.26904519996605814,None,A19,118,2025-04-07_21h59.00.857,416_EXPERIMENT_PSYCHOPY_AU2220019_AU2220225,2024.2.4,59.65690122844315,2025-04-07 22h00.38.051534 +0530,
fear.jpg,f,49,1,8,s,0,0.5566561999730766,None,8,1,49,0,139.5797505999799,,,,,,,,,,,,,,,,139.5750331999734,139.5797505999799,141.07520659995498,141.07520659995498,141.09150429995498,141.57430939999176,141.6436274999869,s,0,,0.5566561999730766,None,A19,118,2025-04-07_21h59.00.857,416_EXPERIMENT_PSYCHOPY_AU2220019_AU2220225,2024.2.4,59.65690122844315,2025-04-07 22h00.38.051534 +0530,
surprise_lower_blur.jpg,s,50,2,8,f,0,0.25053349998779595,None,8,2,50,5,141.66219389997423,,,,,,,,,,,,,,,,141.65729669999564,141.66219389997423,143.15900659997715,143.15900659997715,143.17563109996263,,143.41378339997027,f,0,,0.25053349998779595,None,A19,118,2025-04-07_21h59.00.857,416_EXPERIMENT_PSYCHOPY_AU2220019_AU2220225,2024.2.4,59.65690122844315,2025-04-07 22h00.38.051534 +0530,
surprise_upper_blur.jpg,s,51,3,8,f,0,0.29902380000567064,None,8,3,51,4,143.4301790999598,,,,,,,,,,,,,,,,143.42506320000393,143.4301790999598,144.9262197999633,144.9262197999633,144.94212209997931,,145.22858819999965,f,0,,0.29902380000567064,None,A19,118,2025-04-07_21h59.00.857,416_EXPERIMENT_PSYCHOPY_AU2220019_AU2220225,2024.2.4,59.65690122844315,2025-04-07 22h00.38.051534 +0530,
fear_lower_blur.jpg,f,52,4,8,s,0,0.29806649999227375,None,8,4,52,3,145.24620200000936,,,,,,,,,,,,,,,,145.24181059998227,145.24620200000936,146.741733199975,146.741733199975,146.7584404000081,,147.0438109000097,s,0,,0.29806649999227375,None,A19,118,2025-04-07_21h59.00.857,416_EXPERIMENT_PSYCHOPY_AU2220019_AU2220225,2024.2.4,59.65690122844315,2025-04-07 22h00.38.051534 +0530,
surprise.jpg,s,53,5,8,f,0,0.37630830000853166,None,8,5,53,1,147.06361189996824,,,,,,,,,,,,,,,,147.05876260000514,147.06361189996824,148.55922369996551,148.55922369996551,148.57523149996996,,148.94382019998739,f,0,,0.37630830000853166,None,A19,118,2025-04-07_21h59.00.857,416_EXPERIMENT_PSYCHOPY_AU2220019_AU2220225,2024.2.4,59.65690122844315,2025-04-07 22h00.38.051534 +0530,
fear.jpg,f,54,0,9,f,1,0.6840163999586366,None,9,0,54,0,148.96265070000663,,,,,,,,,,,,,,,,148.9579835999757,148.96265070000663,150.45894519996364,150.45894519996364,150.47515099996235,150.9586999999592,151.16017579997424,f,1,,0.6840163999586366,None,A19,118,2025-04-07_21h59.00.857,416_EXPERIMENT_PSYCHOPY_AU2220019_AU2220225,2024.2.4,59.65690122844315,2025-04-07 22h00.38.051534 +0530,
surprise_upper_blur.jpg,s,55,1,9,f,0,0.6022329999832436,None,9,1,55,4,151.17791510000825,,,,,,,,,,,,,,,,151.17383139999583,151.17791510000825,152.67510140000377,152.67510140000377,152.69178379996447,153.17471769999247,153.29348449996905,f,0,,0.6022329999832436,None,A19,118,2025-04-07_21h59.00.857,416_EXPERIMENT_PSYCHOPY_AU2220019_AU2220225,2024.2.4,59.65690122844315,2025-04-07 22h00.38.051534 +0530,
fear_upper_blur.jpg,f,56,2,9,s,0,0.24506839999230579,None,9,2,56,2,153.31179299997166,,,,,,,,,,,,,,,,153.3071391999838,153.31179299997166,154.80881979997503,154.80881979997503,154.82510610000463,,155.06032920000143,s,0,,0.24506839999230579,None,A19,118,2025-04-07_21h59.00.857,416_EXPERIMENT_PSYCHOPY_AU2220019_AU2220225,2024.2.4,59.65690122844315,2025-04-07 22h00.38.051534 +0530,
fear_lower_blur.jpg,f,57,3,9,f,1,0.2822831000084989,None,9,3,57,3,155.0789969000034,,,,,,,,,,,,,,,,155.07402359996922,155.0789969000034,156.57493519998388,156.57493519998388,156.59173589997226,,156.86444219999248,f,1,,0.2822831000084989,None,A19,118,2025-04-07_21h59.00.857,416_EXPERIMENT_PSYCHOPY_AU2220019_AU2220225,2024.2.4,59.65690122844315,2025-04-07 22h00.38.051534 +0530,
surprise.jpg,s,58,4,9,s,1,0.31655539997154847,None,9,4,58,1,156.89817679999396,,,,,,,,,,,,,,,,156.8904464999796,156.89817679999396,158.37516309996136,158.37516309996136,158.40907100000186,,158.69702259998303,s,1,,0.31655539997154847,None,A19,118,2025-04-07_21h59.00.857,416_EXPERIMENT_PSYCHOPY_AU2220019_AU2220225,2024.2.4,59.65690122844315,2025-04-07 22h00.38.051534 +0530,
surprise_lower_blur.jpg,s,59,5,9,f,0,0.3080457000178285,None,9,5,59,5,158.72515169996768,,,,,,,,,,,,,,,,158.7165916999802,158.72515169996768,160.2087100999779,160.2087100999779,160.22478859999683,,160.53057449997868,f,0,,0.3080457000178285,None,A19,118,2025-04-07_21h59.00.857,416_EXPERIMENT_PSYCHOPY_AU2220019_AU2220225,2024.2.4,59.65690122844315,2025-04-07 22h00.38.051534 +0530,
surprise_lower_blur.jpg,s,60,0,10,f,0,0.4727530999807641,None,10,0,60,5,160.56466779997572,,,,,,,,,,,,,,,,160.55505779996747,160.56466779997572,162.0420041999896,162.0420041999896,162.07521049998468,162.56430089997593,162.53087699995376,f,0,,0.4727530999807641,None,A19,118,2025-04-07_21h59.00.857,416_EXPERIMENT_PSYCHOPY_AU2220019_AU2220225,2024.2.4,59.65690122844315,2025-04-07 22h00.38.051534 +0530,
surprise_upper_blur.jpg,s,61,1,10,f,0,0.3975707000354305,None,10,1,61,4,162.56430089997593,,,,,,,,,,,,,,,,162.55632229999173,162.56430089997593,164.04211679997388,164.04211679997388,164.07542299997294,,164.4505094999913,f,0,,0.3975707000354305,None,A19,118,2025-04-07_21h59.00.857,416_EXPERIMENT_PSYCHOPY_AU2220019_AU2220225,2024.2.4,59.65690122844315,2025-04-07 22h00.38.051534 +0530,
surprise.jpg,s,62,2,10,f,0,0.3528379999916069,None,10,2,62,1,164.4694818999851,,,,,,,,,,,,,,,,164.46508269995684,164.4694818999851,165.95881899999222,165.95881899999222,165.975306599983,,166.32741799997166,f,0,,0.3528379999916069,None,A19,118,2025-04-07_21h59.00.857,416_EXPERIMENT_PSYCHOPY_AU2220019_AU2220225,2024.2.4,59.65690122844315,2025-04-07 22h00.38.051534 +0530,
fear_upper_blur.jpg,f,63,3,10,f,1,0.37813540000934154,None,10,3,63,2,166.35336770000868,,,,,,,,,,,,,,,,166.3442109999596,166.35336770000868,167.84247669996694,167.84247669996694,167.858804199961,,168.227420399955,f,1,,0.37813540000934154,None,A19,118,2025-04-07_21h59.00.857,416_EXPERIMENT_PSYCHOPY_AU2220019_AU2220225,2024.2.4,59.65690122844315,2025-04-07 22h00.38.051534 +0530,
fear_lower_blur.jpg,f,64,4,10,f,1,0.48298610001802444,None,10,4,64,3,168.24620349996258,,,,,,,,,,,,,,,,168.24135119997663,168.24620349996258,169.74212029995397,169.74212029995397,169.75913659995422,170.24852309998823,170.2278731999686,f,1,,0.48298610001802444,None,A19,118,2025-04-07_21h59.00.857,416_EXPERIMENT_PSYCHOPY_AU2220019_AU2220225,2024.2.4,59.65690122844315,2025-04-07 22h00.38.051534 +0530,
fear.jpg,f,65,5,10,s,0,0.4744594999938272,None,10,5,65,0,170.24852309998823,,,,,,,,,,,,,,,,170.24338569998508,170.24852309998823,171.74217449995922,171.74217449995922,171.75872599997092,172.2650254999753,172.231167299964,s,0,,0.4744594999938272,None,A19,118,2025-04-07_21h59.00.857,416_EXPERIMENT_PSYCHOPY_AU2220019_AU2220225,2024.2.4,59.65690122844315,2025-04-07 22h00.38.051534 +0530,
fear_upper_blur.jpg,f,66,0,11,f,1,0.6197775000473484,None,11,0,66,2,172.2650254999753,,,,,,,,,,,,,,,,172.25585349998437,172.2650254999753,173.74165469995933,173.74165469995933,173.7751698999782,174.2417129999958,174.37934669997776,f,1,,0.6197775000473484,None,A19,118,2025-04-07_21h59.00.857,416_EXPERIMENT_PSYCHOPY_AU2220019_AU2220225,2024.2.4,59.65690122844315,2025-04-07 22h00.38.051534 +0530,
surprise.jpg,s,67,1,11,s,1,0.3021852999809198,None,11,1,67,1,174.41270769998664,,,,,,,,,,,,,,,,174.40653320000274,174.41270769998664,175.89217419998022,175.89217419998022,175.9254709999659,,176.21070789999794,s,1,,0.3021852999809198,None,A19,118,2025-04-07_21h59.00.857,416_EXPERIMENT_PSYCHOPY_AU2220019_AU2220225,2024.2.4,59.65690122844315,2025-04-07 22h00.38.051534 +0530,
fear_lower_blur.jpg,f,68,2,11,f,1,0.2689028000459075,None,11,2,68,3,176.22923439997248,,,,,,,,,,,,,,,,176.2241661999724,176.22923439997248,177.72496659995522,177.72496659995522,177.74213510000845,,178.0017085999716,f,1,,0.2689028000459075,None,A19,118,2025-04-07_21h59.00.857,416_EXPERIMENT_PSYCHOPY_AU2220019_AU2220225,2024.2.4,59.65690122844315,2025-04-07 22h00.38.051534 +0530,
surprise_lower_blur.jpg,s,69,3,11,f,0,0.29425689997151494,None,11,3,69,5,178.03582129999995,,,,,,,,,,,,,,,,178.02668780001113,178.03582129999995,179.50863930000924,179.50863930000924,179.541436599975,,179.81358189997263,f,0,,0.29425689997151494,None,A19,118,2025-04-07_21h59.00.857,416_EXPERIMENT_PSYCHOPY_AU2220019_AU2220225,2024.2.4,59.65690122844315,2025-04-07 22h00.38.051534 +0530,
surprise_upper_blur.jpg,s,70,4,11,f,0,0.32478729996364564,None,11,4,70,4,179.84543799998937,,,,,,,,,,,,,,,,179.83682369999588,179.84543799998937,181.32503389997873,181.32503389997873,181.3582267999882,,181.66416509996634,f,0,,0.32478729996364564,None,A19,118,2025-04-07_21h59.00.857,416_EXPERIMENT_PSYCHOPY_AU2220019_AU2220225,2024.2.4,59.65690122844315,2025-04-07 22h00.38.051534 +0530,
fear.jpg,f,71,5,11,s,0,0.6473457000101916,None,11,5,71,0,181.7029968999559,,,,,,,,,,,,,,,,181.69172959995922,181.7029968999559,183.17548849998275,183.17548849998275,183.20864099997561,183.67472349997843,183.82702460000291,s,0,,0.6473457000101916,None,A19,118,2025-04-07_21h59.00.857,416_EXPERIMENT_PSYCHOPY_AU2220019_AU2220225,2024.2.4,59.65690122844315,2025-04-07 22h00.38.051534 +0530,
fear_lower_blur.jpg,f,72,0,12,f,1,0.25915399997029454,None,12,0,72,3,183.8456958999741,,,,,,,,,,,,,,,,183.84055949997855,183.8456958999741,185.34168179996777,185.34168179996777,185.3583912999602,,185.61029119999148,f,1,,0.25915399997029454,None,A19,118,2025-04-07_21h59.00.857,416_EXPERIMENT_PSYCHOPY_AU2220019_AU2220225,2024.2.4,59.65690122844315,2025-04-07 22h00.38.051534 +0530,
surprise_upper_blur.jpg,s,73,1,12,f,0,0.31150449998676777,None,12,1,73,4,185.62848289997783,,,,,,,,,,,,,,,,185.6239968999871,185.62848289997783,187.12533640000038,187.12533640000038,187.14182979997713,,187.4440132000018,f,0,,0.31150449998676777,None,A19,118,2025-04-07_21h59.00.857,416_EXPERIMENT_PSYCHOPY_AU2220019_AU2220225,2024.2.4,59.65690122844315,2025-04-07 22h00.38.051534 +0530,
surprise.jpg,s,74,2,12,f,0,0.3709824000252411,None,12,2,74,1,187.46305289998418,,,,,,,,,,,,,,,,187.45856719999574,187.46305289998418,188.95885459997226,188.95885459997226,188.97525610000594,,189.34633019997273,f,0,,0.3709824000252411,None,A19,118,2025-04-07_21h59.00.857,416_EXPERIMENT_PSYCHOPY_AU2220019_AU2220225,2024.2.4,59.65690122844315,2025-04-07 22h00.38.051534 +0530,
fear.jpg,f,75,3,12,f,1,0.3311165000195615,None,12,3,75,0,189.38129419996403,,,,,,,,,,,,,,,,189.3730372999562,189.38129419996403,190.85884309996618,190.85884309996618,190.8923542999546,,191.19707239995478,f,1,,0.3311165000195615,None,A19,118,2025-04-07_21h59.00.857,416_EXPERIMENT_PSYCHOPY_AU2220019_AU2220225,2024.2.4,59.65690122844315,2025-04-07 22h00.38.051534 +0530,
surprise_lower_blur.jpg,s,76,4,12,f,0,0.330319500004407,None,12,4,76,5,191.21862209995743,,,,,,,,,,,,,,,,191.2131936000078,191.21862209995743,192.7083429999766,192.7083429999766,192.7252491999534,,193.04707510001026,f,0,,0.330319500004407,None,A19,118,2025-04-07_21h59.00.857,416_EXPERIMENT_PSYCHOPY_AU2220019_AU2220225,2024.2.4,59.65690122844315,2025-04-07 22h00.38.051534 +0530,
fear_upper_blur.jpg,f,77,5,12,f,1,0.2800046000047587,None,12,5,77,2,193.0819724999601,,,,,,,,,,,,,,,,193.07244610000635,193.0819724999601,194.5590080000111,194.5590080000111,194.5921163999592,,194.84436799999094,f,1,,0.2800046000047587,None,A19,118,2025-04-07_21h59.00.857,416_EXPERIMENT_PSYCHOPY_AU2220019_AU2220225,2024.2.4,59.65690122844315,2025-04-07 22h00.38.051534 +0530,
surprise_lower_blur.jpg,s,78,0,13,f,0,0.3128046999918297,None,13,0,78,5,194.86368359997869,,,,,,,,,,,,,,,,194.8583547999733,194.86368359997869,196.3589617999969,196.3589617999969,196.3759616999887,,196.67817579995608,f,0,,0.3128046999918297,None,A19,118,2025-04-07_21h59.00.857,416_EXPERIMENT_PSYCHOPY_AU2220019_AU2220225,2024.2.4,59.65690122844315,2025-04-07 22h00.38.051534 +0530,
surprise.jpg,s,79,1,13,s,1,0.3800158000085503,None,13,1,79,1,196.69734459999017,,,,,,,,,,,,,,,,196.69225419999566,196.69734459999017,198.1918680999661,198.1918680999661,198.208694299974,,198.5821877999697,s,1,,0.3800158000085503,None,A19,118,2025-04-07_21h59.00.857,416_EXPERIMENT_PSYCHOPY_AU2220019_AU2220225,2024.2.4,59.65690122844315,2025-04-07 22h00.38.051534 +0530,
surprise_upper_blur.jpg,s,80,2,13,f,0,0.40713519998826087,None,13,2,80,4,198.61771079996834,,,,,,,,,,,,,,,,198.60827759996755,198.61771079996834,200.0923666000017,200.0923666000017,200.12577729998156,,200.51232589996653,f,0,,0.40713519998826087,None,A19,118,2025-04-07_21h59.00.857,416_EXPERIMENT_PSYCHOPY_AU2220019_AU2220225,2024.2.4,59.65690122844315,2025-04-07 22h00.38.051534 +0530,
fear_lower_blur.jpg,f,81,3,13,f,1,0.394102499994915,None,13,3,81,3,200.5415912999888,,,,,,,,,,,,,,,,200.53287699999055,200.5415912999888,202.0251613999717,202.0251613999717,202.0422641999903,,202.42692989995703,f,1,,0.394102499994915,None,A19,118,2025-04-07_21h59.00.857,416_EXPERIMENT_PSYCHOPY_AU2220019_AU2220225,2024.2.4,59.65690122844315,2025-04-07 22h00.38.051534 +0530,
fear.jpg,f,82,4,13,s,0,0.5300543999765068,None,13,4,82,0,202.44175719999475,,,,,,,,,,,,,,,,202.43604189995676,202.44175719999475,203.9420449999743,203.9420449999743,203.9420449999743,204.4420843999833,204.47779450000962,s,0,,0.5300543999765068,None,A19,118,2025-04-07_21h59.00.857,416_EXPERIMENT_PSYCHOPY_AU2220019_AU2220225,2024.2.4,59.65690122844315,2025-04-07 22h00.38.051534 +0530,
fear_upper_blur.jpg,f,83,5,13,f,1,0.25542249996215105,None,13,5,83,2,204.49629549996462,,,,,,,,,,,,,,,,204.4911417000112,204.49629549996462,205.99199329997646,205.99199329997646,206.00876910000807,,206.26435109996237,f,1,,0.25542249996215105,None,A19,118,2025-04-07_21h59.00.857,416_EXPERIMENT_PSYCHOPY_AU2220019_AU2220225,2024.2.4,59.65690122844315,2025-04-07 22h00.38.051534 +0530,
fear.jpg,f,84,0,14,f,1,0.29227189999073744,None,14,0,84,0,206.29730390000623,,,,,,,,,,,,,,,,206.29006159998244,206.29730390000623,207.7759098999668,207.7759098999668,207.80888409999898,,208.07999930001097,f,1,,0.29227189999073744,None,A19,118,2025-04-07_21h59.00.857,416_EXPERIMENT_PSYCHOPY_AU2220019_AU2220225,2024.2.4,59.65690122844315,2025-04-07 22h00.38.051534 +0530,
fear_lower_blur.jpg,f,85,1,14,f,1,0.5644398999866098,None,14,1,85,3,208.1155952999834,,,,,,,,,,,,,,,,208.10614029999124,208.1155952999834,209.5920886999811,209.5920886999811,209.62532069999725,210.09153129998595,210.1597709999769,f,1,,0.5644398999866098,None,A19,118,2025-04-07_21h59.00.857,416_EXPERIMENT_PSYCHOPY_AU2220019_AU2220225,2024.2.4,59.65690122844315,2025-04-07 22h00.38.051534 +0530,
fear_upper_blur.jpg,f,86,2,14,f,1,0.5219417000189424,None,14,2,86,2,210.19005719997222,,,,,,,,,,,,,,,,210.17938859999413,210.19005719997222,211.67561069998192,211.67561069998192,211.69185579998884,212.1746417999966,212.21264189999783,f,1,,0.5219417000189424,None,A19,118,2025-04-07_21h59.00.857,416_EXPERIMENT_PSYCHOPY_AU2220019_AU2220225,2024.2.4,59.65690122844315,2025-04-07 22h00.38.051534 +0530,
surprise_lower_blur.jpg,s,87,3,14,f,0,0.3698787000030279,None,14,3,87,5,212.248019199993,,,,,,,,,,,,,,,,212.2383404999855,212.248019199993,213.725210900011,213.725210900011,213.75848859996768,,214.1103586999816,f,0,,0.3698787000030279,None,A19,118,2025-04-07_21h59.00.857,416_EXPERIMENT_PSYCHOPY_AU2220019_AU2220225,2024.2.4,59.65690122844315,2025-04-07 22h00.38.051534 +0530,
surprise.jpg,s,88,4,14,f,0,0.4001391000347212,None,14,4,88,1,214.1287319000112,,,,,,,,,,,,,,,,214.1245078999782,214.1287319000112,215.62573949998477,215.62573949998477,215.64213190000737,,216.0291904999758,f,0,,0.4001391000347212,None,A19,118,2025-04-07_21h59.00.857,416_EXPERIMENT_PSYCHOPY_AU2220019_AU2220225,2024.2.4,59.65690122844315,2025-04-07 22h00.38.051534 +0530,
surprise_upper_blur.jpg,s,89,5,14,f,0,0.30411590001313016,None,14,5,89,4,216.04795659997035,,,,,,,,,,,,,,,,216.04277639999054,216.04795659997035,217.54235199996037,217.54235199996037,217.55901460000314,,217.86512239999138,f,0,,0.30411590001313016,None,A19,118,2025-04-07_21h59.00.857,416_EXPERIMENT_PSYCHOPY_AU2220019_AU2220225,2024.2.4,59.65690122844315,2025-04-07 22h00.38.051534 +0530,
surprise_upper_blur.jpg,s,90,0,15,f,0,0.5313734000083059,None,15,0,90,4,217.8870035999571,,,,,,,,,,,,,,,,217.8824090999551,217.8870035999571,219.37562909995904,219.37562909995904,219.39231869997457,219.87511319998885,219.91008539998438,f,0,,0.5313734000083059,None,A19,118,2025-04-07_21h59.00.857,416_EXPERIMENT_PSYCHOPY_AU2220019_AU2220225,2024.2.4,59.65690122844315,2025-04-07 22h00.38.051534 +0530,
fear_lower_blur.jpg,f,91,1,15,f,1,0.5725690000108443,None,15,1,91,3,219.9403280999977,,,,,,,,,,,,,,,,219.93091009999625,219.9403280999977,221.42506109998794,221.42506109998794,221.44161539996276,221.9252963999752,222.0110091000097,f,1,,0.5725690000108443,None,A19,118,2025-04-07_21h59.00.857,416_EXPERIMENT_PSYCHOPY_AU2220019_AU2220225,2024.2.4,59.65690122844315,2025-04-07 22h00.38.051534 +0530,
fear.jpg,f,92,2,15,s,0,0.35827100003371015,None,15,2,92,0,222.03037619998213,,,,,,,,,,,,,,,,222.0251636999892,222.03037619998213,223.5255126999691,223.5255126999691,223.54152779997094,,223.8927692999714,s,0,,0.35827100003371015,None,A19,118,2025-04-07_21h59.00.857,416_EXPERIMENT_PSYCHOPY_AU2220019_AU2220225,2024.2.4,59.65690122844315,2025-04-07 22h00.38.051534 +0530,
fear_upper_blur.jpg,f,93,3,15,f,1,0.2444139000144787,None,15,3,93,2,223.9097546999692,,,,,,,,,,,,,,,,223.9056057999842,223.9097546999692,225.4085960999946,225.4085960999946,225.42533509997884,,225.66103560000192,f,1,,0.2444139000144787,None,A19,118,2025-04-07_21h59.00.857,416_EXPERIMENT_PSYCHOPY_AU2220019_AU2220225,2024.2.4,59.65690122844315,2025-04-07 22h00.38.051534 +0530,
surprise.jpg,s,94,4,15,s,1,0.37725669995415956,None,15,4,94,1,225.68021179997595,,,,,,,,,,,,,,,,225.67521759995725,225.68021179997595,227.1754457000061,227.1754457000061,227.19203059998108,,227.5607074999716,s,1,,0.37725669995415956,None,A19,118,2025-04-07_21h59.00.857,416_EXPERIMENT_PSYCHOPY_AU2220019_AU2220225,2024.2.4,59.65690122844315,2025-04-07 22h00.38.051534 +0530,
surprise_lower_blur.jpg,s,95,5,15,f,0,0.42393170000286773,None,15,5,95,5,227.57957090000855,,,,,,,,,,,,,,,,227.57443899998907,227.57957090000855,229.07530189998215,229.07530189998215,229.09186589997262,,229.51057019998552,f,0,,0.42393170000286773,None,A19,118,2025-04-07_21h59.00.857,416_EXPERIMENT_PSYCHOPY_AU2220019_AU2220225,2024.2.4,59.65690122844315,2025-04-07 22h00.38.051534 +0530,
fear_upper_blur.jpg,f,96,0,16,f,1,0.41467319999355823,None,16,0,96,2,229.5288766999729,,,,,,,,,,,,,,,,229.5243427999667,229.5288766999729,231.02529239997966,231.02529239997966,231.04154229996493,,231.4447212999803,f,1,,0.41467319999355823,None,A19,118,2025-04-07_21h59.00.857,416_EXPERIMENT_PSYCHOPY_AU2220019_AU2220225,2024.2.4,59.65690122844315,2025-04-07 22h00.38.051534 +0530,
surprise_lower_blur.jpg,s,97,1,16,f,0,0.6188703999505378,None,16,1,97,5,231.46277569996892,,,,,,,,,,,,,,,,231.4582210999797,231.46277569996892,232.95842739997897,232.95842739997897,232.97487779997755,233.45816049998393,233.5932821999886,f,0,,0.6188703999505378,None,A19,118,2025-04-07_21h59.00.857,416_EXPERIMENT_PSYCHOPY_AU2220019_AU2220225,2024.2.4,59.65690122844315,2025-04-07 22h00.38.051534 +0530,
fear_lower_blur.jpg,f,98,2,16,f,1,0.4646338999737054,None,16,2,98,3,233.61201639997307,,,,,,,,,,,,,,,,233.60714209999423,233.61201639997307,235.10865000000922,235.10865000000922,235.1253171999706,,235.57812819996616,f,1,,0.4646338999737054,None,A19,118,2025-04-07_21h59.00.857,416_EXPERIMENT_PSYCHOPY_AU2220019_AU2220225,2024.2.4,59.65690122844315,2025-04-07 22h00.38.051534 +0530,
surprise.jpg,s,99,3,16,s,1,0.3945626000058837,None,16,3,99,1,235.59726049995515,,,,,,,,,,,,,,,,235.5924437000067,235.59726049995515,237.09220399998594,237.09220399998594,237.1085710999905,,237.49408479995327,s,1,,0.3945626000058837,None,A19,118,2025-04-07_21h59.00.857,416_EXPERIMENT_PSYCHOPY_AU2220019_AU2220225,2024.2.4,59.65690122844315,2025-04-07 22h00.38.051534 +0530,
surprise_upper_blur.jpg,s,100,4,16,f,0,0.3104987000115216,None,16,4,100,4,237.51259060000302,,,,,,,,,,,,,,,,237.50759249995463,237.51259060000302,239.0083573999582,239.0083573999582,239.02548539999407,,239.3281743999687,f,0,,0.3104987000115216,None,A19,118,2025-04-07_21h59.00.857,416_EXPERIMENT_PSYCHOPY_AU2220019_AU2220225,2024.2.4,59.65690122844315,2025-04-07 22h00.38.051534 +0530,
fear.jpg,f,101,5,16,s,0,0.673508399981074,None,16,5,101,0,239.34722279995913,,,,,,,,,,,,,,,,239.3424389999709,239.34722279995913,240.84238099999493,240.84238099999493,240.85902039997745,241.34154739999212,241.52687329996843,s,0,,0.673508399981074,None,A19,118,2025-04-07_21h59.00.857,416_EXPERIMENT_PSYCHOPY_AU2220019_AU2220225,2024.2.4,59.65690122844315,2025-04-07 22h00.38.051534 +0530,
fear.jpg,f,102,0,17,f,1,0.4322882000124082,None,17,0,102,0,241.5460454999702,,,,,,,,,,,,,,,,241.54121180000948,241.5460454999702,243.04176339996047,243.04176339996047,243.05849550000858,,243.47814859997015,f,1,,0.4322882000124082,None,A19,118,2025-04-07_21h59.00.857,416_EXPERIMENT_PSYCHOPY_AU2220019_AU2220225,2024.2.4,59.65690122844315,2025-04-07 22h00.38.051534 +0530,
surprise_lower_blur.jpg,s,103,1,17,f,0,0.5810579999815673,None,17,1,103,5,243.49597079999512,,,,,,,,,,,,,,,,243.49161839997396,243.49597079999512,244.9916236999561,244.9916236999561,245.00867780001136,245.49149789998773,245.57662889995845,f,0,,0.5810579999815673,None,A19,118,2025-04-07_21h59.00.857,416_EXPERIMENT_PSYCHOPY_AU2220019_AU2220225,2024.2.4,59.65690122844315,2025-04-07 22h00.38.051534 +0530,
fear_upper_blur.jpg,f,104,2,17,f,1,0.2651474000304006,None,17,2,104,2,245.59508929995354,,,,,,,,,,,,,,,,245.59007469995413,245.59508929995354,247.09190850000596,247.09190850000596,247.10857459995896,,247.3608513000072,f,1,,0.2651474000304006,None,A19,118,2025-04-07_21h59.00.857,416_EXPERIMENT_PSYCHOPY_AU2220019_AU2220225,2024.2.4,59.65690122844315,2025-04-07 22h00.38.051534 +0530,
surprise.jpg,s,105,3,17,f,0,0.33167370001319796,None,17,3,105,1,247.38050219998695,,,,,,,,,,,,,,,,247.37529689999064,247.38050219998695,248.87564129999373,248.87564129999373,248.89181040000403,,249.21177789999638,f,0,,0.33167370001319796,None,A19,118,2025-04-07_21h59.00.857,416_EXPERIMENT_PSYCHOPY_AU2220019_AU2220225,2024.2.4,59.65690122844315,2025-04-07 22h00.38.051534 +0530,
fear_lower_blur.jpg,f,106,4,17,f,1,0.5945458000060171,None,17,4,106,3,249.2301424999605,,,,,,,,,,,,,,,,249.22554289997788,249.2301424999605,250.725400299998,250.725400299998,250.7416694999556,251.22514819999924,251.32707080000546,f,1,,0.5945458000060171,None,A19,118,2025-04-07_21h59.00.857,416_EXPERIMENT_PSYCHOPY_AU2220019_AU2220225,2024.2.4,59.65690122844315,2025-04-07 22h00.38.051534 +0530,
surprise_upper_blur.jpg,s,107,5,17,f,0,0.4113096000510268,None,17,5,107,4,251.34519639995415,,,,,,,,,,,,,,,,251.34028469998157,251.34519639995415,252.84200559998862,252.84200559998862,252.85865660000127,,253.26166129997,f,0,,0.4113096000510268,None,A19,118,2025-04-07_21h59.00.857,416_EXPERIMENT_PSYCHOPY_AU2220019_AU2220225,2024.2.4,59.65690122844315,2025-04-07 22h00.38.051534 +0530,
surprise_lower_blur.jpg,s,108,0,18,s,1,0.2520006999839097,None,18,0,108,5,253.2807227000012,,,,,,,,,,,,,,,,253.27549249998992,253.2807227000012,254.77491109998664,254.77491109998664,254.79215799999656,,255.04380609997315,s,1,,0.2520006999839097,None,A19,118,2025-04-07_21h59.00.857,416_EXPERIMENT_PSYCHOPY_AU2220019_AU2220225,2024.2.4,59.65690122844315,2025-04-07 22h00.38.051534 +0530,
fear_upper_blur.jpg,f,109,1,18,f,1,0.34813300002133474,None,18,1,109,2,255.06190510001034,,,,,,,,,,,,,,,,255.05776900000637,255.06190510001034,256.5585075999843,256.5585075999843,256.5751708999742,,256.9110997999669,f,1,,0.34813300002133474,None,A19,118,2025-04-07_21h59.00.857,416_EXPERIMENT_PSYCHOPY_AU2220019_AU2220225,2024.2.4,59.65690122844315,2025-04-07 22h00.38.051534 +0530,
surprise_upper_blur.jpg,s,110,2,18,f,0,0.44263609999325126,None,18,2,110,4,256.9296425000066,,,,,,,,,,,,,,,,256.9248758999747,256.9296425000066,258.4252627000096,258.4252627000096,258.4412258999655,,258.8770761999767,f,0,,0.44263609999325126,None,A19,118,2025-04-07_21h59.00.857,416_EXPERIMENT_PSYCHOPY_AU2220019_AU2220225,2024.2.4,59.65690122844315,2025-04-07 22h00.38.051534 +0530,
surprise.jpg,s,111,3,18,s,1,0.30940590001409873,None,18,3,111,1,258.8965510999551,,,,,,,,,,,,,,,,258.8918668999686,258.8965510999551,260.39194000000134,260.39194000000134,260.40816309995716,,260.71067860000767,s,1,,0.30940590001409873,None,A19,118,2025-04-07_21h59.00.857,416_EXPERIMENT_PSYCHOPY_AU2220019_AU2220225,2024.2.4,59.65690122844315,2025-04-07 22h00.38.051534 +0530,
fear_lower_blur.jpg,f,112,4,18,f,1,0.40370700001949444,None,18,4,112,3,260.72995999996783,,,,,,,,,,,,,,,,260.7253909999854,260.72995999996783,262.22483069996815,262.22483069996815,262.24253519997,,262.64389780000784,f,1,,0.40370700001949444,None,A19,118,2025-04-07_21h59.00.857,416_EXPERIMENT_PSYCHOPY_AU2220019_AU2220225,2024.2.4,59.65690122844315,2025-04-07 22h00.38.051534 +0530,
fear.jpg,f,113,5,18,f,1,0.24440490000415593,None,18,5,113,0,262.6636078999727,,,,,,,,,,,,,,,,262.65871499996865,262.6636078999727,264.15879179997137,264.15879179997137,264.17546160001075,,264.4108105999767,f,1,,0.24440490000415593,None,A19,118,2025-04-07_21h59.00.857,416_EXPERIMENT_PSYCHOPY_AU2220019_AU2220225,2024.2.4,59.65690122844315,2025-04-07 22h00.38.051534 +0530,
surprise_upper_blur.jpg,s,114,0,19,f,0,0.4571486000204459,None,19,0,114,4,264.42933339998126,,,,,,,,,,,,,,,,264.4242593999952,264.42933339998126,265.92535989999305,265.92535989999305,265.9416225999594,,266.3940661000088,f,0,,0.4571486000204459,None,A19,118,2025-04-07_21h59.00.857,416_EXPERIMENT_PSYCHOPY_AU2220019_AU2220225,2024.2.4,59.65690122844315,2025-04-07 22h00.38.051534 +0530,
surprise_lower_blur.jpg,s,115,1,19,s,1,0.3538332000025548,None,19,1,115,5,266.41252319997875,,,,,,,,,,,,,,,,266.4079189999611,266.41252319997875,267.9085730999941,267.9085730999941,267.92539409996243,,268.27751379995607,s,1,,0.3538332000025548,None,A19,118,2025-04-07_21h59.00.857,416_EXPERIMENT_PSYCHOPY_AU2220019_AU2220225,2024.2.4,59.65690122844315,2025-04-07 22h00.38.051534 +0530,
fear.jpg,f,116,2,19,f,1,0.24342920002527535,None,19,2,116,0,268.2961311999825,,,,,,,,,,,,,,,,268.29160539997974,268.2961311999825,269.7918677999987,269.7918677999987,269.8082435000106,,270.04646139999386,f,1,,0.24342920002527535,None,A19,118,2025-04-07_21h59.00.857,416_EXPERIMENT_PSYCHOPY_AU2220019_AU2220225,2024.2.4,59.65690122844315,2025-04-07 22h00.38.051534 +0530,
fear_lower_blur.jpg,f,117,3,19,f,1,0.28396869997959584,None,19,3,117,3,270.07136489998084,,,,,,,,,,,,,,,,270.06367909995606,270.07136489998084,271.5581945999875,271.5581945999875,271.57512599998154,,271.8490484000067,f,1,,0.28396869997959584,None,A19,118,2025-04-07_21h59.00.857,416_EXPERIMENT_PSYCHOPY_AU2220019_AU2220225,2024.2.4,59.65690122844315,2025-04-07 22h00.38.051534 +0530,
surprise.jpg,s,118,4,19,f,0,0.26432429999113083,None,19,4,118,1,271.8855921999784,,,,,,,,,,,,,,,,271.8756953999982,271.8855921999784,273.35898309998447,273.35898309998447,273.3915097999852,,273.62808459997177,f,0,,0.26432429999113083,None,A19,118,2025-04-07_21h59.00.857,416_EXPERIMENT_PSYCHOPY_AU2220019_AU2220225,2024.2.4,59.65690122844315,2025-04-07 22h00.38.051534 +0530,
fear_upper_blur.jpg,f,119,5,19,f,1,0.347462700039614,None,19,5,119,2,273.64634609996574,,,,,,,,,,,,,,,,273.64086939999834,273.64634609996574,275.1422970999847,275.1422970999847,275.15908059995854,,275.49442999996245,f,1,,0.347462700039614,None,A19,118,2025-04-07_21h59.00.857,416_EXPERIMENT_PSYCHOPY_AU2220019_AU2220225,2024.2.4,59.65690122844315,2025-04-07 22h00.38.051534 +0530,
