stimulus_image,correct_response,loop.thisRepN,loop.thisTrialN,loop.thisN,loop.thisIndex,thisRow.t,notes,guide.started,instructions.started,ins_resp.started,guide.stopped,ins_resp.keys,ins_resp.rt,ins_resp.duration,guide_2.started,ins_resp_2.started,instructions_2.started,guide_2.stopped,ins_resp_2.keys,ins_resp_2.rt,ins_resp_2.duration,trial.started,fixation.started,image.started,key_resp.started,fixation.stopped,trial.stopped,key_resp.keys,key_resp.corr,key_resp.rt,key_resp.duration,image.stopped,key_resp.stopped,participant,session,date,expName,psychopyVersion,frameRate,expStart,
,,,,,,,,0.0023267000215128064,0.012560499948449433,0.012560499948449433,13.876285600010306,space,13.84174439997878,None,,,,,,,,,,,,,,,,,,,,A20,001,2025-03-29_20h07.07.487,416_EXPERIMENT_PSYCHOPY_AU2220019_AU2220225,2024.1.5,None,2025-03-29 20h07.22.467090 +0530,
,,,,,,,,,,,,,,,13.876350600039586,13.884538799989969,13.884538799989969,15.968637099955231,space,2.082023900002241,None,,,,,,,,,,,,,A20,001,2025-03-29_20h07.07.487,416_EXPERIMENT_PSYCHOPY_AU2220019_AU2220225,2024.1.5,None,2025-03-29 20h07.22.467090 +0530,
fear_upper_blur.jpg,f,0,0,0,2,16.011224700021558,,,,,,,,,,,,,,,,15.987882400047965,16.011224700021558,17.529347599949688,17.529347599949688,17.54538619995583,18.016463099978864,f,1,0.4805320999585092,None,,,A20,001,2025-03-29_20h07.07.487,416_EXPERIMENT_PSYCHOPY_AU2220019_AU2220225,2024.1.5,None,2025-03-29 20h07.22.467090 +0530,
fear_lower_blur.jpg,f,0,1,1,3,18.038018899969757,,,,,,,,,,,,,,,,18.019090399960987,18.038018899969757,19.528773099998944,19.528773099998944,19.54585130000487,20.263869400019757,None,0,,,20.284055599942803,20.284055599942803,A20,001,2025-03-29_20h07.07.487,416_EXPERIMENT_PSYCHOPY_AU2220019_AU2220225,2024.1.5,None,2025-03-29 20h07.22.467090 +0530,
fear.jpg,f,0,2,2,0,20.284055599942803,,,,,,,,,,,,,,,,20.26620960002765,20.284055599942803,21.776794799952768,21.776794799952768,21.794086799956858,22.262663100031205,f,1,0.4820033999858424,None,,,A20,001,2025-03-29_20h07.07.487,416_EXPERIMENT_PSYCHOPY_AU2220019_AU2220225,2024.1.5,None,2025-03-29 20h07.22.467090 +0530,
surprise_upper_blur.jpg,s,0,3,3,4,22.284372000023723,,,,,,,,,,,,,,,,22.264738900004886,22.284372000023723,23.77457340003457,23.77457340003457,23.79109489999246,24.177625600015745,s,1,0.4001156999729574,None,,,A20,001,2025-03-29_20h07.07.487,416_EXPERIMENT_PSYCHOPY_AU2220019_AU2220225,2024.1.5,None,2025-03-29 20h07.22.467090 +0530,
surprise.jpg,s,0,4,4,1,24.19962700002361,,,,,,,,,,,,,,,,24.179543899954297,24.19962700002361,25.6891472999705,25.6891472999705,25.70658330002334,26.14123099995777,s,1,0.43680169992148876,None,,,A20,001,2025-03-29_20h07.07.487,416_EXPERIMENT_PSYCHOPY_AU2220019_AU2220225,2024.1.5,None,2025-03-29 20h07.22.467090 +0530,
surprise_lower_blur.jpg,s,0,5,5,5,26.16544609994162,,,,,,,,,,,,,,,,26.1429401000496,26.16544609994162,27.6546190000372,27.6546190000372,27.670742899994366,28.073381999973208,s,1,0.407160299946554,None,,,A20,001,2025-03-29_20h07.07.487,416_EXPERIMENT_PSYCHOPY_AU2220019_AU2220225,2024.1.5,None,2025-03-29 20h07.22.467090 +0530,
surprise_upper_blur.jpg,s,1,0,6,4,28.096185000031255,,,,,,,,,,,,,,,,28.075142599991523,28.096185000031255,29.585923700011335,29.585923700011335,29.60277009999845,29.92196619999595,s,1,0.3267593999626115,None,,,A20,001,2025-03-29_20h07.07.487,416_EXPERIMENT_PSYCHOPY_AU2220019_AU2220225,2024.1.5,None,2025-03-29 20h07.22.467090 +0530,
surprise.jpg,s,1,1,7,1,29.943686499958858,,,,,,,,,,,,,,,,29.923505099955946,29.943686499958858,31.433109499979764,31.433109499979764,31.450114900013432,31.8830825999612,f,0,0.44852560001891106,None,,,A20,001,2025-03-29_20h07.07.487,416_EXPERIMENT_PSYCHOPY_AU2220019_AU2220225,2024.1.5,None,2025-03-29 20h07.22.467090 +0530,
fear_lower_blur.jpg,f,1,2,8,3,31.898741299984977,,,,,,,,,,,,,,,,31.88383960002102,31.898741299984977,33.39854029996786,33.39854029996786,33.39854029996786,33.86845790001098,s,0,0.4644518999848515,None,,,A20,001,2025-03-29_20h07.07.487,416_EXPERIMENT_PSYCHOPY_AU2220019_AU2220225,2024.1.5,None,2025-03-29 20h07.22.467090 +0530,
fear.jpg,f,1,3,9,0,33.89257409994025,,,,,,,,,,,,,,,,33.87086859997362,33.89257409994025,35.380253199953586,35.380253199953586,35.39654820004944,35.88189760001842,f,1,0.4886161999311298,None,,,A20,001,2025-03-29_20h07.07.487,416_EXPERIMENT_PSYCHOPY_AU2220019_AU2220225,2024.1.5,None,2025-03-29 20h07.22.467090 +0530,
fear_upper_blur.jpg,f,1,4,10,2,35.90530009998474,,,,,,,,,,,,,,,,35.883434299961664,35.90530009998474,37.39477340003941,37.39477340003941,37.41130120004527,37.927224799990654,f,1,0.5170258999569342,None,,,A20,001,2025-03-29_20h07.07.487,416_EXPERIMENT_PSYCHOPY_AU2220019_AU2220225,2024.1.5,None,2025-03-29 20h07.22.467090 +0530,
surprise_lower_blur.jpg,s,1,5,11,5,37.94294910004828,,,,,,,,,,,,,,,,37.928207500022836,37.94294910004828,39.441596499993466,39.441596499993466,39.441596499993466,39.92824219993781,s,1,0.4727843999862671,None,,,A20,001,2025-03-29_20h07.07.487,416_EXPERIMENT_PSYCHOPY_AU2220019_AU2220225,2024.1.5,None,2025-03-29 20h07.22.467090 +0530,
surprise.jpg,s,2,0,12,1,39.94804239994846,,,,,,,,,,,,,,,,39.930211000028066,39.94804239994846,41.441405699937604,41.441405699937604,41.45746639999561,41.77323809999507,f,0,0.31581900001037866,None,,,A20,001,2025-03-29_20h07.07.487,416_EXPERIMENT_PSYCHOPY_AU2220019_AU2220225,2024.1.5,None,2025-03-29 20h07.22.467090 +0530,
surprise_lower_blur.jpg,s,2,1,13,5,41.78933689999394,,,,,,,,,,,,,,,,41.773890499956906,41.78933689999394,43.2884179999819,43.2884179999819,43.2884179999819,43.924129000050016,s,1,0.6325680000009015,None,,,A20,001,2025-03-29_20h07.07.487,416_EXPERIMENT_PSYCHOPY_AU2220019_AU2220225,2024.1.5,None,2025-03-29 20h07.22.467090 +0530,
fear_lower_blur.jpg,f,2,2,14,3,43.945174899999984,,,,,,,,,,,,,,,,43.92597860004753,43.945174899999984,45.43661219999194,45.43661219999194,45.453695800038986,45.82296070002485,f,1,0.3840551999164745,None,,,A20,001,2025-03-29_20h07.07.487,416_EXPERIMENT_PSYCHOPY_AU2220019_AU2220225,2024.1.5,None,2025-03-29 20h07.22.467090 +0530,
fear_upper_blur.jpg,f,2,3,15,2,45.84533369995188,,,,,,,,,,,,,,,,45.824810400023125,45.84533369995188,47.33464519993868,47.33464519993868,47.35166729998309,47.88662809995003,f,1,0.5340499000158161,None,,,A20,001,2025-03-29_20h07.07.487,416_EXPERIMENT_PSYCHOPY_AU2220019_AU2220225,2024.1.5,None,2025-03-29 20h07.22.467090 +0530,
fear.jpg,f,2,4,16,0,47.908056500018574,,,,,,,,,,,,,,,,47.888390699983574,47.908056500018574,49.399361700052395,49.399361700052395,49.416069000028074,49.88538160000462,f,1,0.47591759997885674,None,,,A20,001,2025-03-29_20h07.07.487,416_EXPERIMENT_PSYCHOPY_AU2220019_AU2220225,2024.1.5,None,2025-03-29 20h07.22.467090 +0530,
surprise_upper_blur.jpg,s,2,5,17,4,49.90495750005357,,,,,,,,,,,,,,,,49.887258999980986,49.90495750005357,51.39798679994419,51.39798679994419,51.41504029999487,51.983328599948436,s,1,0.5734991000499576,None,,,A20,001,2025-03-29_20h07.07.487,416_EXPERIMENT_PSYCHOPY_AU2220019_AU2220225,2024.1.5,None,2025-03-29 20h07.22.467090 +0530,
fear.jpg,f,3,0,18,0,52.00457800005097,,,,,,,,,,,,,,,,51.98504089994822,52.00457800005097,53.49572060001083,53.49572060001083,53.51182829996105,53.998198200017214,f,1,0.496835199999623,None,,,A20,001,2025-03-29_20h07.07.487,416_EXPERIMENT_PSYCHOPY_AU2220019_AU2220225,2024.1.5,None,2025-03-29 20h07.22.467090 +0530,
surprise_upper_blur.jpg,s,3,1,19,4,54.018869400024414,,,,,,,,,,,,,,,,54.00016709999181,54.018869400024414,55.510248900041915,55.510248900041915,55.52649650000967,56.1789874000242,s,1,0.6581454999977723,None,,,A20,001,2025-03-29_20h07.07.487,416_EXPERIMENT_PSYCHOPY_AU2220019_AU2220225,2024.1.5,None,2025-03-29 20h07.22.467090 +0530,
fear_lower_blur.jpg,f,3,2,20,3,56.20123150001746,,,,,,,,,,,,,,,,56.18109139997978,56.20123150001746,57.69156780000776,57.69156780000776,57.70799419994,58.160817299969494,f,1,0.45690160000231117,None,,,A20,001,2025-03-29_20h07.07.487,416_EXPERIMENT_PSYCHOPY_AU2220019_AU2220225,2024.1.5,None,2025-03-29 20h07.22.467090 +0530,
fear_upper_blur.jpg,f,3,3,21,2,58.17947410000488,,,,,,,,,,,,,,,,58.1627773999935,58.17947410000488,59.672831999952905,59.672831999952905,59.68966240005102,60.09160819998942,f,1,0.4150030000600964,None,,,A20,001,2025-03-29_20h07.07.487,416_EXPERIMENT_PSYCHOPY_AU2220019_AU2220225,2024.1.5,None,2025-03-29 20h07.22.467090 +0530,
surprise_lower_blur.jpg,s,3,4,22,5,60.11476959998254,,,,,,,,,,,,,,,,60.09336209995672,60.11476959998254,61.604839500039816,61.604839500039816,61.62140249996446,62.170487600029446,s,1,0.5625381999416277,None,,,A20,001,2025-03-29_20h07.07.487,416_EXPERIMENT_PSYCHOPY_AU2220019_AU2220225,2024.1.5,None,2025-03-29 20h07.22.467090 +0530,
surprise.jpg,s,3,5,23,1,62.18666090001352,,,,,,,,,,,,,,,,62.17141139996238,62.18666090001352,63.68418029998429,63.68418029998429,63.7006816000212,64.25415719999,s,1,0.5528447999386117,None,,,A20,001,2025-03-29_20h07.07.487,416_EXPERIMENT_PSYCHOPY_AU2220019_AU2220225,2024.1.5,None,2025-03-29 20h07.22.467090 +0530,
surprise_lower_blur.jpg,s,4,0,24,5,64.27629609999713,,,,,,,,,,,,,,,,64.25567069998942,64.27629609999713,65.76645230001304,65.76645230001304,65.78408879996277,66.40293059998658,s,1,0.6196496000047773,None,,,A20,001,2025-03-29_20h07.07.487,416_EXPERIMENT_PSYCHOPY_AU2220019_AU2220225,2024.1.5,None,2025-03-29 20h07.22.467090 +0530,
surprise_upper_blur.jpg,s,4,1,25,4,66.42516600003,,,,,,,,,,,,,,,,66.40474030002952,66.42516600003,67.91447139997035,67.91447139997035,67.93135650001932,68.38390989997424,f,0,0.4625962999416515,None,,,A20,001,2025-03-29_20h07.07.487,416_EXPERIMENT_PSYCHOPY_AU2220019_AU2220225,2024.1.5,None,2025-03-29 20h07.22.467090 +0530,
fear.jpg,f,4,2,26,0,68.40590579994023,,,,,,,,,,,,,,,,68.3857700000517,68.40590579994023,69.89583970000967,69.89583970000967,69.91294419998303,70.4658431999851,f,1,0.5646988999797031,None,,,A20,001,2025-03-29_20h07.07.487,416_EXPERIMENT_PSYCHOPY_AU2220019_AU2220225,2024.1.5,None,2025-03-29 20h07.22.467090 +0530,
fear_lower_blur.jpg,f,4,3,27,3,70.48621020000428,,,,,,,,,,,,,,,,70.46760960004758,70.48621020000428,71.977688999963,71.977688999963,71.99459190003108,72.46247799997218,f,1,0.468709500040859,None,,,A20,001,2025-03-29_20h07.07.487,416_EXPERIMENT_PSYCHOPY_AU2220019_AU2220225,2024.1.5,None,2025-03-29 20h07.22.467090 +0530,
surprise.jpg,s,4,4,28,1,72.48288210004102,,,,,,,,,,,,,,,,72.46413750003558,72.48288210004102,73.97400229994673,73.97400229994673,73.9910605000332,74.47498469997663,s,1,0.49757320003118366,None,,,A20,001,2025-03-29_20h07.07.487,416_EXPERIMENT_PSYCHOPY_AU2220019_AU2220225,2024.1.5,None,2025-03-29 20h07.22.467090 +0530,
fear_upper_blur.jpg,f,4,5,29,2,74.49041660001967,,,,,,,,,,,,,,,,74.47597270004917,74.49041660001967,75.98967959999572,75.98967959999572,75.98967959999572,76.50883309997153,f,1,0.5135818000417203,None,,,A20,001,2025-03-29_20h07.07.487,416_EXPERIMENT_PSYCHOPY_AU2220019_AU2220225,2024.1.5,None,2025-03-29 20h07.22.467090 +0530,
fear_upper_blur.jpg,f,5,0,30,2,76.52954709995538,,,,,,,,,,,,,,,,76.5105417999439,76.52954709995538,78.02126569999382,78.02126569999382,78.03772390005179,78.55716309999116,f,1,0.5338953000027686,None,,,A20,001,2025-03-29_20h07.07.487,416_EXPERIMENT_PSYCHOPY_AU2220019_AU2220225,2024.1.5,None,2025-03-29 20h07.22.467090 +0530,
fear.jpg,f,5,1,31,0,78.58283089997713,,,,,,,,,,,,,,,,78.55883110000286,78.58283089997713,80.069897999987,80.069897999987,80.08662760001607,80.52215390000492,f,1,0.44643669994547963,None,,,A20,001,2025-03-29_20h07.07.487,416_EXPERIMENT_PSYCHOPY_AU2220019_AU2220225,2024.1.5,None,2025-03-29 20h07.22.467090 +0530,
surprise.jpg,s,5,2,32,1,80.54211369995028,,,,,,,,,,,,,,,,80.52381409995724,80.54211369995028,82.03393379994668,82.03393379994668,82.05088680004701,82.55136969999876,s,1,0.5160692998906597,None,,,A20,001,2025-03-29_20h07.07.487,416_EXPERIMENT_PSYCHOPY_AU2220019_AU2220225,2024.1.5,None,2025-03-29 20h07.22.467090 +0530,
surprise_upper_blur.jpg,s,5,3,33,4,82.56569820002187,,,,,,,,,,,,,,,,82.55201880005188,82.56569820002187,84.0657218999695,84.0657218999695,84.0657218999695,84.61706179997418,s,1,0.5373723999364302,None,,,A20,001,2025-03-29_20h07.07.487,416_EXPERIMENT_PSYCHOPY_AU2220019_AU2220225,2024.1.5,None,2025-03-29 20h07.22.467090 +0530,
surprise_lower_blur.jpg,s,5,4,34,5,84.63796189997811,,,,,,,,,,,,,,,,84.61880469997413,84.63796189997811,86.13023889996111,86.13023889996111,86.14698800002225,86.64849339995999,s,1,0.504492099978961,None,,,A20,001,2025-03-29_20h07.07.487,416_EXPERIMENT_PSYCHOPY_AU2220019_AU2220225,2024.1.5,None,2025-03-29 20h07.22.467090 +0530,
fear_lower_blur.jpg,f,5,5,35,3,86.66902170004323,,,,,,,,,,,,,,,,86.65054780000355,86.66902170004323,88.16145490005147,88.16145490005147,88.177931800019,88.63002899999265,f,1,0.4556114000733942,None,,,A20,001,2025-03-29_20h07.07.487,416_EXPERIMENT_PSYCHOPY_AU2220019_AU2220225,2024.1.5,None,2025-03-29 20h07.22.467090 +0530,
fear_upper_blur.jpg,f,6,0,36,2,88.65333829994779,,,,,,,,,,,,,,,,88.6318908999674,88.65333829994779,90.14389379997738,90.14389379997738,90.15982980001718,90.60903049993794,f,1,0.4511075000045821,None,,,A20,001,2025-03-29_20h07.07.487,416_EXPERIMENT_PSYCHOPY_AU2220019_AU2220225,2024.1.5,None,2025-03-29 20h07.22.467090 +0530,
surprise.jpg,s,6,1,37,1,90.62466830003541,,,,,,,,,,,,,,,,90.60999220004305,90.62466830003541,92.12434590002522,92.12434590002522,92.14113969996106,92.69255569996312,s,1,0.5604460999602452,None,,,A20,001,2025-03-29_20h07.07.487,416_EXPERIMENT_PSYCHOPY_AU2220019_AU2220225,2024.1.5,None,2025-03-29 20h07.22.467090 +0530,
fear.jpg,f,6,2,38,0,92.71696750004776,,,,,,,,,,,,,,,,92.69441440002993,92.71696750004776,94.20590069994796,94.20590069994796,94.22245150001254,94.67422469996382,f,1,0.4658496000338346,None,,,A20,001,2025-03-29_20h07.07.487,416_EXPERIMENT_PSYCHOPY_AU2220019_AU2220225,2024.1.5,None,2025-03-29 20h07.22.467090 +0530,
fear_lower_blur.jpg,f,6,3,39,3,94.69753719994333,,,,,,,,,,,,,,,,94.67597039998509,94.69753719994333,96.18648579996079,96.18648579996079,96.20359539997298,96.65572759998031,s,0,0.4610193999251351,None,,,A20,001,2025-03-29_20h07.07.487,416_EXPERIMENT_PSYCHOPY_AU2220019_AU2220225,2024.1.5,None,2025-03-29 20h07.22.467090 +0530,
surprise_lower_blur.jpg,s,6,4,40,5,96.67836040002294,,,,,,,,,,,,,,,,96.65740310004912,96.67836040002294,98.16686300002038,98.16686300002038,98.18368779995944,98.75365550001152,s,1,0.5790657999459654,None,,,A20,001,2025-03-29_20h07.07.487,416_EXPERIMENT_PSYCHOPY_AU2220019_AU2220225,2024.1.5,None,2025-03-29 20h07.22.467090 +0530,
surprise_upper_blur.jpg,s,6,5,41,4,98.7788542000344,,,,,,,,,,,,,,,,98.75537000002805,98.7788542000344,100.26652179996017,100.26652179996017,100.28349950001575,101.00084849994164,None,0,,,101.01999299996532,101.01999299996532,A20,001,2025-03-29_20h07.07.487,416_EXPERIMENT_PSYCHOPY_AU2220019_AU2220225,2024.1.5,None,2025-03-29 20h07.22.467090 +0530,
surprise_upper_blur.jpg,s,7,0,42,4,101.01999299996532,,,,,,,,,,,,,,,,101.0023825999815,101.01999299996532,102.51280709996354,102.51280709996354,102.52977350004949,103.06528009998146,s,1,0.5354305000510067,None,,,A20,001,2025-03-29_20h07.07.487,416_EXPERIMENT_PSYCHOPY_AU2220019_AU2220225,2024.1.5,None,2025-03-29 20h07.22.467090 +0530,
fear_upper_blur.jpg,f,7,1,43,2,103.08317550003994,,,,,,,,,,,,,,,,103.06650850002188,103.08317550003994,104.57885279995389,104.57885279995389,104.59537959995214,105.08169649995398,f,1,0.4841608999995515,None,,,A20,001,2025-03-29_20h07.07.487,416_EXPERIMENT_PSYCHOPY_AU2220019_AU2220225,2024.1.5,None,2025-03-29 20h07.22.467090 +0530,
fear_lower_blur.jpg,f,7,2,44,3,105.10441399994306,,,,,,,,,,,,,,,,105.08313689997885,105.10441399994306,106.59347049996722,106.59347049996722,106.6102385999402,107.095611799974,f,1,0.48476110002957284,None,,,A20,001,2025-03-29_20h07.07.487,416_EXPERIMENT_PSYCHOPY_AU2220019_AU2220225,2024.1.5,None,2025-03-29 20h07.22.467090 +0530,
surprise.jpg,s,7,3,45,1,107.11487139994279,,,,,,,,,,,,,,,,107.09724309993908,107.11487139994279,108.60868800000753,108.60868800000753,108.62500190001447,109.1439737000037,s,1,0.5285904000047594,None,,,A20,001,2025-03-29_20h07.07.487,416_EXPERIMENT_PSYCHOPY_AU2220019_AU2220225,2024.1.5,None,2025-03-29 20h07.22.467090 +0530,
surprise_lower_blur.jpg,s,7,4,46,5,109.16682040004525,,,,,,,,,,,,,,,,109.14569309994113,109.16682040004525,110.65636160003487,110.65636160003487,110.67303669999819,111.25789919996168,s,1,0.5885057999985293,None,,,A20,001,2025-03-29_20h07.07.487,416_EXPERIMENT_PSYCHOPY_AU2220019_AU2220225,2024.1.5,None,2025-03-29 20h07.22.467090 +0530,
fear.jpg,f,7,5,47,0,111.27885280002374,,,,,,,,,,,,,,,,111.26045970001724,111.27885280002374,112.7710307999514,112.7710307999514,112.78849409997929,113.28967720002402,f,1,0.5131427999585867,None,,,A20,001,2025-03-29_20h07.07.487,416_EXPERIMENT_PSYCHOPY_AU2220019_AU2220225,2024.1.5,None,2025-03-29 20h07.22.467090 +0530,
surprise.jpg,s,8,0,48,1,113.31290519994218,,,,,,,,,,,,,,,,113.29144709999673,113.31290519994218,114.80200869997498,114.80200869997498,114.81847049994394,115.33807629998773,s,1,0.5270160000072792,None,,,A20,001,2025-03-29_20h07.07.487,416_EXPERIMENT_PSYCHOPY_AU2220019_AU2220225,2024.1.5,None,2025-03-29 20h07.22.467090 +0530,
fear.jpg,f,8,1,49,0,115.35723089997191,,,,,,,,,,,,,,,,115.33978259994183,115.35723089997191,116.84994360001292,116.84994360001292,116.86668360000476,117.46805509994738,f,1,0.6012456000316888,None,,,A20,001,2025-03-29_20h07.07.487,416_EXPERIMENT_PSYCHOPY_AU2220019_AU2220225,2024.1.5,None,2025-03-29 20h07.22.467090 +0530,
fear_lower_blur.jpg,f,8,2,50,3,117.4857085000258,,,,,,,,,,,,,,,,117.46954029996414,117.4857085000258,118.9817408999661,118.9817408999661,118.99770219996572,119.54981680004857,f,1,0.5553854999598116,None,,,A20,001,2025-03-29_20h07.07.487,416_EXPERIMENT_PSYCHOPY_AU2220019_AU2220225,2024.1.5,None,2025-03-29 20h07.22.467090 +0530,
surprise_lower_blur.jpg,s,8,3,51,5,119.56929440004751,,,,,,,,,,,,,,,,119.55235769995488,119.56929440004751,121.06313389993738,121.06313389993738,121.07993989996612,121.44861510000192,s,1,0.37653020001016557,None,,,A20,001,2025-03-29_20h07.07.487,416_EXPERIMENT_PSYCHOPY_AU2220019_AU2220225,2024.1.5,None,2025-03-29 20h07.22.467090 +0530,
fear_upper_blur.jpg,f,8,4,52,2,121.47076679999009,,,,,,,,,,,,,,,,121.4504997000331,121.47076679999009,122.96187090000603,122.96187090000603,122.97745010000654,123.4803438000381,s,0,0.5106066000880674,None,,,A20,001,2025-03-29_20h07.07.487,416_EXPERIMENT_PSYCHOPY_AU2220019_AU2220225,2024.1.5,None,2025-03-29 20h07.22.467090 +0530,
surprise_upper_blur.jpg,s,8,5,53,4,123.4988822999876,,,,,,,,,,,,,,,,123.48226089996751,123.4988822999876,124.99198970000725,124.99198970000725,125.00929830002133,125.57751560001634,s,1,0.5697448999853805,None,,,A20,001,2025-03-29_20h07.07.487,416_EXPERIMENT_PSYCHOPY_AU2220019_AU2220225,2024.1.5,None,2025-03-29 20h07.22.467090 +0530,
surprise_upper_blur.jpg,s,9,0,54,4,125.5999213999603,,,,,,,,,,,,,,,,125.57943339995109,125.5999213999603,127.08980630000588,127.08980630000588,127.10671119997278,127.7589328000322,f,0,0.663031299947761,None,,,A20,001,2025-03-29_20h07.07.487,416_EXPERIMENT_PSYCHOPY_AU2220019_AU2220225,2024.1.5,None,2025-03-29 20h07.22.467090 +0530,
fear_lower_blur.jpg,f,9,1,55,3,127.77986050001346,,,,,,,,,,,,,,,,127.76084430003539,127.77986050001346,129.27087440004107,129.27087440004107,129.28747710003518,129.70677449996583,f,1,0.4253292999928817,None,,,A20,001,2025-03-29_20h07.07.487,416_EXPERIMENT_PSYCHOPY_AU2220019_AU2220225,2024.1.5,None,2025-03-29 20h07.22.467090 +0530,
fear_upper_blur.jpg,f,9,2,56,2,129.72970000002533,,,,,,,,,,,,,,,,129.70847549999598,129.72970000002533,131.22018169995863,131.22018169995863,131.23595020000357,131.76811429997906,s,0,0.5338417000602931,None,,,A20,001,2025-03-29_20h07.07.487,416_EXPERIMENT_PSYCHOPY_AU2220019_AU2220225,2024.1.5,None,2025-03-29 20h07.22.467090 +0530,
surprise.jpg,s,9,3,57,1,131.78387679997832,,,,,,,,,,,,,,,,131.76915960002225,131.78387679997832,133.28461229999084,133.28461229999084,133.28461229999084,133.7527270000428,s,1,0.4573400999652222,None,,,A20,001,2025-03-29_20h07.07.487,416_EXPERIMENT_PSYCHOPY_AU2220019_AU2220225,2024.1.5,None,2025-03-29 20h07.22.467090 +0530,
surprise_lower_blur.jpg,s,9,4,58,5,133.77458890003618,,,,,,,,,,,,,,,,133.75461559998803,133.77458890003618,135.26533660001587,135.26533660001587,135.28244410001207,135.81752919999417,s,1,0.5429355000378564,None,,,A20,001,2025-03-29_20h07.07.487,416_EXPERIMENT_PSYCHOPY_AU2220019_AU2220225,2024.1.5,None,2025-03-29 20h07.22.467090 +0530,
fear.jpg,f,9,5,59,0,135.83698769996408,,,,,,,,,,,,,,,,135.81916049995925,135.83698769996408,137.3302436999511,137.3302436999511,137.34706369997002,137.9659374000039,f,1,0.6198046000208706,None,,,A20,001,2025-03-29_20h07.07.487,416_EXPERIMENT_PSYCHOPY_AU2220019_AU2220225,2024.1.5,None,2025-03-29 20h07.22.467090 +0530,
fear_lower_blur.jpg,f,10,0,60,3,137.9856742999982,,,,,,,,,,,,,,,,137.96771740005352,137.9856742999982,139.4778013000032,139.4778013000032,139.4931333999848,139.9305381999584,f,1,0.43942760000936687,None,,,A20,001,2025-03-29_20h07.07.487,416_EXPERIMENT_PSYCHOPY_AU2220019_AU2220225,2024.1.5,None,2025-03-29 20h07.22.467090 +0530,
fear.jpg,f,10,1,61,0,139.9506524000317,,,,,,,,,,,,,,,,139.932399500045,139.9506524000317,141.44238050002605,141.44238050002605,141.45958499994595,141.911557000014,f,1,0.456772799952887,None,,,A20,001,2025-03-29_20h07.07.487,416_EXPERIMENT_PSYCHOPY_AU2220019_AU2220225,2024.1.5,None,2025-03-29 20h07.22.467090 +0530,
surprise_upper_blur.jpg,s,10,2,62,4,141.93281260004733,,,,,,,,,,,,,,,,141.9132813999895,141.93281260004733,143.4242488000309,143.4242488000309,143.44048859993927,143.910199200036,s,1,0.4710747000062838,None,,,A20,001,2025-03-29_20h07.07.487,416_EXPERIMENT_PSYCHOPY_AU2220019_AU2220225,2024.1.5,None,2025-03-29 20h07.22.467090 +0530,
surprise.jpg,s,10,3,63,1,143.92936059995554,,,,,,,,,,,,,,,,143.91186089999974,143.92936059995554,145.42180090001784,145.42180090001784,145.43852389999665,145.9735803999938,s,1,0.5365569000132382,None,,,A20,001,2025-03-29_20h07.07.487,416_EXPERIMENT_PSYCHOPY_AU2220019_AU2220225,2024.1.5,None,2025-03-29 20h07.22.467090 +0530,
surprise_lower_blur.jpg,s,10,4,64,5,145.99667210003827,,,,,,,,,,,,,,,,145.97525210003369,145.99667210003827,147.48636870004702,147.48636870004702,147.50329909997527,148.10502370004542,s,1,0.6018932999577373,None,,,A20,001,2025-03-29_20h07.07.487,416_EXPERIMENT_PSYCHOPY_AU2220019_AU2220225,2024.1.5,None,2025-03-29 20h07.22.467090 +0530,
fear_upper_blur.jpg,f,10,5,65,2,148.12313600000925,,,,,,,,,,,,,,,,148.10651409998536,148.12313600000925,149.61756879999302,149.61756879999302,149.63460140000097,150.08734800003003,f,1,0.46302489994559437,None,,,A20,001,2025-03-29_20h07.07.487,416_EXPERIMENT_PSYCHOPY_AU2220019_AU2220225,2024.1.5,None,2025-03-29 20h07.22.467090 +0530,
surprise_upper_blur.jpg,s,11,0,66,4,150.1093665000517,,,,,,,,,,,,,,,,150.08925399999134,150.1093665000517,151.59775730001274,151.59775730001274,151.61431830003858,152.03153269994073,f,0,0.4189658999675885,None,,,A20,001,2025-03-29_20h07.07.487,416_EXPERIMENT_PSYCHOPY_AU2220019_AU2220225,2024.1.5,None,2025-03-29 20h07.22.467090 +0530,
fear.jpg,f,11,1,67,0,152.04685980000068,,,,,,,,,,,,,,,,152.03212690004148,152.04685980000068,153.5310883000493,153.5310883000493,153.54846389999148,154.09981599997263,f,1,0.5528263000305742,None,,,A20,001,2025-03-29_20h07.07.487,416_EXPERIMENT_PSYCHOPY_AU2220019_AU2220225,2024.1.5,None,2025-03-29 20h07.22.467090 +0530,
fear_upper_blur.jpg,f,11,2,68,2,154.11993469996378,,,,,,,,,,,,,,,,154.10198200005107,154.11993469996378,155.61211510002613,155.61211510002613,155.6287874999689,156.14809969998896,f,1,0.5302603000309318,None,,,A20,001,2025-03-29_20h07.07.487,416_EXPERIMENT_PSYCHOPY_AU2220019_AU2220225,2024.1.5,None,2025-03-29 20h07.22.467090 +0530,
surprise_lower_blur.jpg,s,11,3,69,5,156.17363179998938,,,,,,,,,,,,,,,,156.15021400002297,156.17363179998938,157.66006100003142,157.66006100003142,157.67639659997076,158.31305200001225,s,1,0.6445822999812663,None,,,A20,001,2025-03-29_20h07.07.487,416_EXPERIMENT_PSYCHOPY_AU2220019_AU2220225,2024.1.5,None,2025-03-29 20h07.22.467090 +0530,
fear_lower_blur.jpg,f,11,4,70,3,158.3337928999681,,,,,,,,,,,,,,,,158.31481679994613,158.3337928999681,159.82286309998017,159.82286309998017,159.83992559998296,160.32724569994025,f,1,0.48735509999096394,None,,,A20,001,2025-03-29_20h07.07.487,416_EXPERIMENT_PSYCHOPY_AU2220019_AU2220225,2024.1.5,None,2025-03-29 20h07.22.467090 +0530,
surprise.jpg,s,11,5,71,1,160.34731820004527,,,,,,,,,,,,,,,,160.32974580000155,160.34731820004527,161.8393941000104,161.8393941000104,161.8561618999811,162.39109159994405,s,1,0.5382488000905141,None,,,A20,001,2025-03-29_20h07.07.487,416_EXPERIMENT_PSYCHOPY_AU2220019_AU2220225,2024.1.5,None,2025-03-29 20h07.22.467090 +0530,
surprise_lower_blur.jpg,s,12,0,72,5,162.41451819997746,,,,,,,,,,,,,,,,162.39263619994745,162.41451819997746,163.90347749996,163.90347749996,163.9211062999675,164.5059299999848,s,1,0.5862168000312522,None,,,A20,001,2025-03-29_20h07.07.487,416_EXPERIMENT_PSYCHOPY_AU2220019_AU2220225,2024.1.5,None,2025-03-29 20h07.22.467090 +0530,
fear_upper_blur.jpg,f,12,1,73,2,164.53026779997163,,,,,,,,,,,,,,,,164.50741229997948,164.53026779997163,166.01854039996397,166.01854039996397,166.03511659998912,166.47088399995118,f,1,0.4395992000354454,None,,,A20,001,2025-03-29_20h07.07.487,416_EXPERIMENT_PSYCHOPY_AU2220019_AU2220225,2024.1.5,None,2025-03-29 20h07.22.467090 +0530,
fear_lower_blur.jpg,f,12,2,74,3,166.48922650003806,,,,,,,,,,,,,,,,166.47228820004966,166.48922650003806,167.98318860004656,167.98318860004656,168.0000736999791,168.43645589996595,f,1,0.4362332000164315,None,,,A20,001,2025-03-29_20h07.07.487,416_EXPERIMENT_PSYCHOPY_AU2220019_AU2220225,2024.1.5,None,2025-03-29 20h07.22.467090 +0530,
surprise.jpg,s,12,3,75,1,168.45849580003414,,,,,,,,,,,,,,,,168.4386345000239,168.45849580003414,169.948162100045,169.948162100045,169.96481559996027,170.45020910003223,s,1,0.4961347000207752,None,,,A20,001,2025-03-29_20h07.07.487,416_EXPERIMENT_PSYCHOPY_AU2220019_AU2220225,2024.1.5,None,2025-03-29 20h07.22.467090 +0530,
surprise_upper_blur.jpg,s,12,4,76,4,170.47145329997875,,,,,,,,,,,,,,,,170.4521773000015,170.47145329997875,171.9627615000354,171.9627615000354,171.9792224999983,172.36576820001937,f,0,0.3976439000107348,None,,,A20,001,2025-03-29_20h07.07.487,416_EXPERIMENT_PSYCHOPY_AU2220019_AU2220225,2024.1.5,None,2025-03-29 20h07.22.467090 +0530,
fear.jpg,f,12,5,77,0,172.3912268000422,,,,,,,,,,,,,,,,172.36741529998835,172.3912268000422,173.87759179994464,173.87759179994464,173.89392029994633,174.36280150001403,f,1,0.47382059996016324,None,,,A20,001,2025-03-29_20h07.07.487,416_EXPERIMENT_PSYCHOPY_AU2220019_AU2220225,2024.1.5,None,2025-03-29 20h07.22.467090 +0530,
surprise_upper_blur.jpg,s,13,0,78,4,174.38178890000563,,,,,,,,,,,,,,,,174.36470299994107,174.38178890000563,175.87403509998694,175.87403509998694,175.89041949994862,176.4272123000119,s,1,0.5363099999958649,None,,,A20,001,2025-03-29_20h07.07.487,416_EXPERIMENT_PSYCHOPY_AU2220019_AU2220225,2024.1.5,None,2025-03-29 20h07.22.467090 +0530,
surprise.jpg,s,13,1,79,1,176.44565749994945,,,,,,,,,,,,,,,,176.42873479996342,176.44565749994945,177.94030090002343,177.94030090002343,177.95701430004556,178.4430483999895,s,1,0.49228989996481687,None,,,A20,001,2025-03-29_20h07.07.487,416_EXPERIMENT_PSYCHOPY_AU2220019_AU2220225,2024.1.5,None,2025-03-29 20h07.22.467090 +0530,
fear_lower_blur.jpg,f,13,2,80,3,178.4626508000074,,,,,,,,,,,,,,,,178.4448609999381,178.4626508000074,179.95526169997174,179.95526169997174,179.9721123999916,180.52447770000435,f,1,0.560473799938336,None,,,A20,001,2025-03-29_20h07.07.487,416_EXPERIMENT_PSYCHOPY_AU2220019_AU2220225,2024.1.5,None,2025-03-29 20h07.22.467090 +0530,
surprise_lower_blur.jpg,s,13,3,81,5,180.54452080000192,,,,,,,,,,,,,,,,180.52627010003198,180.54452080000192,182.03648400004022,182.03648400004022,182.05209859996103,182.6847095999401,s,1,0.644386800006032,None,,,A20,001,2025-03-29_20h07.07.487,416_EXPERIMENT_PSYCHOPY_AU2220019_AU2220225,2024.1.5,None,2025-03-29 20h07.22.467090 +0530,
fear_upper_blur.jpg,f,13,4,82,2,182.70079190004617,,,,,,,,,,,,,,,,182.68551850004587,182.70079190004617,184.2005058999639,184.2005058999639,184.2005058999639,184.90178690000903,f,1,0.6841240000212565,None,,,A20,001,2025-03-29_20h07.07.487,416_EXPERIMENT_PSYCHOPY_AU2220019_AU2220225,2024.1.5,None,2025-03-29 20h07.22.467090 +0530,
fear.jpg,f,13,5,83,0,184.92266959999688,,,,,,,,,,,,,,,,184.90383510000538,184.92266959999688,186.41495320003014,186.41495320003014,186.43202700000256,186.90107380005065,f,1,0.4815803000237793,None,,,A20,001,2025-03-29_20h07.07.487,416_EXPERIMENT_PSYCHOPY_AU2220019_AU2220225,2024.1.5,None,2025-03-29 20h07.22.467090 +0530,
surprise_lower_blur.jpg,s,14,0,84,5,186.92183959996328,,,,,,,,,,,,,,,,186.9029162999941,186.92183959996328,188.41319690004457,188.41319690004457,188.42959529999644,188.88216429995373,s,1,0.46514340001158416,None,,,A20,001,2025-03-29_20h07.07.487,416_EXPERIMENT_PSYCHOPY_AU2220019_AU2220225,2024.1.5,None,2025-03-29 20h07.22.467090 +0530,
fear_lower_blur.jpg,f,14,1,85,3,188.90534769999795,,,,,,,,,,,,,,,,188.88376570004039,188.90534769999795,190.3957764999941,190.3957764999941,190.4114362000255,190.930087500019,f,1,0.5202580000041053,None,,,A20,001,2025-03-29_20h07.07.487,416_EXPERIMENT_PSYCHOPY_AU2220019_AU2220225,2024.1.5,None,2025-03-29 20h07.22.467090 +0530,
surprise.jpg,s,14,2,86,1,190.94867189996876,,,,,,,,,,,,,,,,190.93176329997368,190.94867189996876,192.44296799995936,192.44296799995936,192.45989499997813,192.99462360003963,s,1,0.5366028000134975,None,,,A20,001,2025-03-29_20h07.07.487,416_EXPERIMENT_PSYCHOPY_AU2220019_AU2220225,2024.1.5,None,2025-03-29 20h07.22.467090 +0530,
fear.jpg,f,14,3,87,0,193.01667519996408,,,,,,,,,,,,,,,,192.99612519994844,193.01667519996408,194.5071145000402,194.5071145000402,194.52441299997736,194.94302859995514,f,1,0.43176629999652505,None,,,A20,001,2025-03-29_20h07.07.487,416_EXPERIMENT_PSYCHOPY_AU2220019_AU2220225,2024.1.5,None,2025-03-29 20h07.22.467090 +0530,
fear_upper_blur.jpg,f,14,4,88,2,194.96442520001438,,,,,,,,,,,,,,,,194.94483449996915,194.96442520001438,196.45506069995463,196.45506069995463,196.4719318000134,196.9079806000227,f,1,0.43815279996488243,None,,,A20,001,2025-03-29_20h07.07.487,416_EXPERIMENT_PSYCHOPY_AU2220019_AU2220225,2024.1.5,None,2025-03-29 20h07.22.467090 +0530,
surprise_upper_blur.jpg,s,14,5,89,4,196.93331929994747,,,,,,,,,,,,,,,,196.90979419997893,196.93331929994747,198.41991950001102,198.41991950001102,198.43639609997626,198.95483729999978,s,1,0.5210087000159547,None,,,A20,001,2025-03-29_20h07.07.487,416_EXPERIMENT_PSYCHOPY_AU2220019_AU2220225,2024.1.5,None,2025-03-29 20h07.22.467090 +0530,
surprise.jpg,s,15,0,90,1,198.97599399997853,,,,,,,,,,,,,,,,198.95673730003182,198.97599399997853,200.468091799994,200.468091799994,200.4843973000534,201.08662630000617,s,1,0.6162618999369442,None,,,A20,001,2025-03-29_20h07.07.487,416_EXPERIMENT_PSYCHOPY_AU2220019_AU2220225,2024.1.5,None,2025-03-29 20h07.22.467090 +0530,
surprise_lower_blur.jpg,s,15,1,91,5,201.107644099975,,,,,,,,,,,,,,,,201.08852170000318,201.107644099975,202.59934509999584,202.59934509999584,202.6155947999796,203.3330774999922,None,0,,,203.35471570002846,203.35471570002846,A20,001,2025-03-29_20h07.07.487,416_EXPERIMENT_PSYCHOPY_AU2220019_AU2220225,2024.1.5,None,2025-03-29 20h07.22.467090 +0530,
surprise_upper_blur.jpg,s,15,2,92,4,203.35471570002846,,,,,,,,,,,,,,,,203.33438529993873,203.35471570002846,204.84550269995816,204.84550269995816,204.86187140003312,205.36600729997735,s,1,0.5070628999965265,None,,,A20,001,2025-03-29_20h07.07.487,416_EXPERIMENT_PSYCHOPY_AU2220019_AU2220225,2024.1.5,None,2025-03-29 20h07.22.467090 +0530,
fear.jpg,f,15,3,93,0,205.3871815999737,,,,,,,,,,,,,,,,205.36791379994247,205.3871815999737,206.87816830002703,206.87816830002703,206.89495250000618,207.2813297000248,f,1,0.3970708000706509,None,,,A20,001,2025-03-29_20h07.07.487,416_EXPERIMENT_PSYCHOPY_AU2220019_AU2220225,2024.1.5,None,2025-03-29 20h07.22.467090 +0530,
fear_lower_blur.jpg,f,15,4,94,3,207.30378700001165,,,,,,,,,,,,,,,,207.28317690000404,207.30378700001165,208.79269359994214,208.79269359994214,208.81053589994553,209.27923260000534,f,1,0.480556899914518,None,,,A20,001,2025-03-29_20h07.07.487,416_EXPERIMENT_PSYCHOPY_AU2220019_AU2220225,2024.1.5,None,2025-03-29 20h07.22.467090 +0530,
fear_upper_blur.jpg,f,15,5,95,2,209.30012649996206,,,,,,,,,,,,,,,,209.28125510003883,209.30012649996206,210.7911176000489,210.7911176000489,210.80805680004414,211.35911439999472,f,1,0.550672399927862,None,,,A20,001,2025-03-29_20h07.07.487,416_EXPERIMENT_PSYCHOPY_AU2220019_AU2220225,2024.1.5,None,2025-03-29 20h07.22.467090 +0530,
surprise.jpg,s,16,0,96,1,211.38166730001103,,,,,,,,,,,,,,,,211.36097100004554,211.38166730001103,212.87256030004937,212.87256030004937,212.88975630002096,213.32460779999383,s,1,0.4411302999360487,None,,,A20,001,2025-03-29_20h07.07.487,416_EXPERIMENT_PSYCHOPY_AU2220019_AU2220225,2024.1.5,None,2025-03-29 20h07.22.467090 +0530,
fear.jpg,f,16,1,97,0,213.34919320000336,,,,,,,,,,,,,,,,213.3263288999442,213.34919320000336,214.83729990001302,214.83729990001302,214.85332250001375,215.2562952999724,f,1,0.41679869999643415,None,,,A20,001,2025-03-29_20h07.07.487,416_EXPERIMENT_PSYCHOPY_AU2220019_AU2220225,2024.1.5,None,2025-03-29 20h07.22.467090 +0530,
fear_lower_blur.jpg,f,16,2,98,3,215.2793229999952,,,,,,,,,,,,,,,,215.25810730003286,215.2793229999952,216.76759409997612,216.76759409997612,216.78438970004208,217.21787389996462,f,1,0.4341194999869913,None,,,A20,001,2025-03-29_20h07.07.487,416_EXPERIMENT_PSYCHOPY_AU2220019_AU2220225,2024.1.5,None,2025-03-29 20h07.22.467090 +0530,
surprise_upper_blur.jpg,s,16,3,99,4,217.23349569994025,,,,,,,,,,,,,,,,217.21865309996065,217.23349569994025,218.7332351000514,218.7332351000514,218.7332351000514,219.20209659996908,s,1,0.45138650003354996,None,,,A20,001,2025-03-29_20h07.07.487,416_EXPERIMENT_PSYCHOPY_AU2220019_AU2220225,2024.1.5,None,2025-03-29 20h07.22.467090 +0530,
fear_upper_blur.jpg,f,16,4,100,2,219.2219673000509,,,,,,,,,,,,,,,,219.20391110004857,219.2219673000509,220.714669900015,220.714669900015,220.73138240003027,221.1338717000326,f,1,0.4109718999825418,None,,,A20,001,2025-03-29_20h07.07.487,416_EXPERIMENT_PSYCHOPY_AU2220019_AU2220225,2024.1.5,None,2025-03-29 20h07.22.467090 +0530,
surprise_lower_blur.jpg,s,16,5,101,5,221.15595819998998,,,,,,,,,,,,,,,,221.13563329994213,221.15595819998998,222.6464444999583,222.6464444999583,222.66355629998725,223.19854659994598,s,1,0.5438698000507429,None,,,A20,001,2025-03-29_20h07.07.487,416_EXPERIMENT_PSYCHOPY_AU2220019_AU2220225,2024.1.5,None,2025-03-29 20h07.22.467090 +0530,
surprise_upper_blur.jpg,s,17,0,102,4,223.21929439995438,,,,,,,,,,,,,,,,223.20042639994062,223.21929439995438,224.71112059999723,224.71112059999723,224.72863569995388,225.44489329995122,None,0,,,225.46775579999667,225.46775579999667,A20,001,2025-03-29_20h07.07.487,416_EXPERIMENT_PSYCHOPY_AU2220019_AU2220225,2024.1.5,None,2025-03-29 20h07.22.467090 +0530,
fear_upper_blur.jpg,f,17,1,103,2,225.46775579999667,,,,,,,,,,,,,,,,225.44618510000873,225.46775579999667,226.95912170002703,226.95912170002703,226.97502869996242,227.52720470004715,f,1,0.5579379999544472,None,,,A20,001,2025-03-29_20h07.07.487,416_EXPERIMENT_PSYCHOPY_AU2220019_AU2220225,2024.1.5,None,2025-03-29 20h07.22.467090 +0530,
surprise_lower_blur.jpg,s,17,2,104,5,227.55034019995946,,,,,,,,,,,,,,,,227.53000689996406,227.55034019995946,229.03988199995365,229.03988199995365,229.0564387999475,229.44238260004204,f,0,0.399936500005424,None,,,A20,001,2025-03-29_20h07.07.487,416_EXPERIMENT_PSYCHOPY_AU2220019_AU2220225,2024.1.5,None,2025-03-29 20h07.22.467090 +0530,
surprise.jpg,s,17,3,105,1,229.46699320001062,,,,,,,,,,,,,,,,229.44426220003515,229.46699320001062,230.9546190999681,230.9546190999681,230.9713162999833,231.54133739997633,s,1,0.5839287999551743,None,,,A20,001,2025-03-29_20h07.07.487,416_EXPERIMENT_PSYCHOPY_AU2220019_AU2220225,2024.1.5,None,2025-03-29 20h07.22.467090 +0530,
fear.jpg,f,17,4,106,0,231.56701749993954,,,,,,,,,,,,,,,,231.5430602999404,231.56701749993954,233.05118499998935,233.05118499998935,233.06775559997186,233.73772169998847,f,1,0.6822416000068188,None,,,A20,001,2025-03-29_20h07.07.487,416_EXPERIMENT_PSYCHOPY_AU2220019_AU2220225,2024.1.5,None,2025-03-29 20h07.22.467090 +0530,
fear_lower_blur.jpg,f,17,5,107,3,233.75856170000043,,,,,,,,,,,,,,,,233.73954089998733,233.75856170000043,235.250583200017,235.250583200017,235.26701449998654,235.75230739999097,f,1,0.48982859996613115,None,,,A20,001,2025-03-29_20h07.07.487,416_EXPERIMENT_PSYCHOPY_AU2220019_AU2220225,2024.1.5,None,2025-03-29 20h07.22.467090 +0530,
surprise.jpg,s,18,0,108,1,235.77418319997378,,,,,,,,,,,,,,,,235.75422590004746,235.77418319997378,237.2647988999961,237.2647988999961,237.2815800999524,237.80069049994927,s,1,0.5186262000352144,None,,,A20,001,2025-03-29_20h07.07.487,416_EXPERIMENT_PSYCHOPY_AU2220019_AU2220225,2024.1.5,None,2025-03-29 20h07.22.467090 +0530,
surprise_lower_blur.jpg,s,18,1,109,5,237.82269009994343,,,,,,,,,,,,,,,,237.8021256000502,237.82269009994343,239.3117272000527,239.3117272000527,239.32819190004375,239.89849479997065,s,1,0.5701014999067411,None,,,A20,001,2025-03-29_20h07.07.487,416_EXPERIMENT_PSYCHOPY_AU2220019_AU2220225,2024.1.5,None,2025-03-29 20h07.22.467090 +0530,
fear_upper_blur.jpg,f,18,2,110,2,239.92021839995869,,,,,,,,,,,,,,,,239.90056360000744,239.92021839995869,241.41131190001033,241.41131190001033,241.42779800004791,241.8801752999425,f,1,0.46283580001909286,None,,,A20,001,2025-03-29_20h07.07.487,416_EXPERIMENT_PSYCHOPY_AU2220019_AU2220225,2024.1.5,None,2025-03-29 20h07.22.467090 +0530,
surprise_upper_blur.jpg,s,18,3,111,4,241.90002519998234,,,,,,,,,,,,,,,,241.8823780999519,241.90002519998234,243.3924854999641,243.3924854999641,243.40929930005223,243.9776202000212,s,1,0.5708204000256956,None,,,A20,001,2025-03-29_20h07.07.487,416_EXPERIMENT_PSYCHOPY_AU2220019_AU2220225,2024.1.5,None,2025-03-29 20h07.22.467090 +0530,
fear.jpg,f,18,4,112,0,244.00235119997524,,,,,,,,,,,,,,,,243.97982100001536,244.00235119997524,245.49111990001984,245.49111990001984,245.5071490999544,245.90897270001005,f,1,0.41281779995188117,None,,,A20,001,2025-03-29_20h07.07.487,416_EXPERIMENT_PSYCHOPY_AU2220019_AU2220225,2024.1.5,None,2025-03-29 20h07.22.467090 +0530,
fear_lower_blur.jpg,f,18,5,113,3,245.9271570999408,,,,,,,,,,,,,,,,245.91063319996465,245.9271570999408,247.42217969999183,247.42217969999183,247.43866460002027,248.17204480001237,None,0,,,,,A20,001,2025-03-29_20h07.07.487,416_EXPERIMENT_PSYCHOPY_AU2220019_AU2220225,2024.1.5,None,2025-03-29 20h07.22.467090 +0530,
surprise_lower_blur.jpg,s,19,0,114,5,248.19437319994904,,,,,,,,,,,,,,,,248.17418840003666,248.19437319994904,249.66963629995007,249.66963629995007,249.70314450003207,250.18893760000356,s,1,0.5170036000199616,None,,,A20,001,2025-03-29_20h07.07.487,416_EXPERIMENT_PSYCHOPY_AU2220019_AU2220225,2024.1.5,None,2025-03-29 20h07.22.467090 +0530,
fear_lower_blur.jpg,f,19,1,115,3,250.20976630004589,,,,,,,,,,,,,,,,250.19060400000308,250.20976630004589,251.70112730003893,251.70112730003893,251.71791500004474,252.26987139997073,f,1,0.5632369000231847,None,,,A20,001,2025-03-29_20h07.07.487,416_EXPERIMENT_PSYCHOPY_AU2220019_AU2220225,2024.1.5,None,2025-03-29 20h07.22.467090 +0530,
surprise_upper_blur.jpg,s,19,2,116,4,252.29459730000235,,,,,,,,,,,,,,,,252.2715795999393,252.29459730000235,253.7823314999696,253.7823314999696,253.79909270000644,254.4845587000018,s,1,0.695779100060463,None,,,A20,001,2025-03-29_20h07.07.487,416_EXPERIMENT_PSYCHOPY_AU2220019_AU2220225,2024.1.5,None,2025-03-29 20h07.22.467090 +0530,
fear.jpg,f,19,3,117,0,254.50970259995665,,,,,,,,,,,,,,,,254.48621699993964,254.50970259995665,255.99662019999232,255.99662019999232,256.01339670002926,256.54926370002795,f,1,0.5405553999589756,None,,,A20,001,2025-03-29_20h07.07.487,416_EXPERIMENT_PSYCHOPY_AU2220019_AU2220225,2024.1.5,None,2025-03-29 20h07.22.467090 +0530,
surprise.jpg,s,19,4,118,1,256.5742372999666,,,,,,,,,,,,,,,,256.55100159998983,256.5742372999666,258.06205670000054,258.06205670000054,258.0781465000473,258.6958617999917,s,1,0.6208939999341965,None,,,A20,001,2025-03-29_20h07.07.487,416_EXPERIMENT_PSYCHOPY_AU2220019_AU2220225,2024.1.5,None,2025-03-29 20h07.22.467090 +0530,
fear_upper_blur.jpg,f,19,5,119,2,258.71495639998466,,,,,,,,,,,,,,,,258.69708179996815,258.71495639998466,260.20930710004177,260.20930710004177,260.2257850000169,260.7776358999545,f,1,0.555231700069271,None,,,A20,001,2025-03-29_20h07.07.487,416_EXPERIMENT_PSYCHOPY_AU2220019_AU2220225,2024.1.5,None,2025-03-29 20h07.22.467090 +0530,
