stimulus_image,correct_response,thisN,thisTrialN,thisRepN,key_resp.keys,key_resp.corr,key_resp.rt,key_resp.duration,loop.thisRepN,loop.thisTrialN,loop.thisN,loop.thisIndex,thisRow.t,notes,guide.started,instructions.started,ins_resp.started,guide.stopped,ins_resp.keys,ins_resp.rt,ins_resp.duration,guide_2.started,text.started,key_resp_2.started,guide_2.stopped,key_resp_2.keys,key_resp_2.rt,key_resp_2.duration,trial.started,fixation.started,image.started,key_resp.started,fixation.stopped,image.stopped,trial.stopped,loop.key_resp.keys,loop.key_resp.corr,loop.key_resp.rt,loop.key_resp.duration,key_resp.stopped,participant,session,date,expName,psychopyVersion,frameRate,expStart,
,,,,,,,,,,,,,,,0.004072899930179119,0.012119699968025088,0.012119699968025088,13.575834000017494,space,13.494457099935971,None,,,,,,,,,,,,,,,,,,,,A21,103,2025-04-01_12h27.27.000,416_EXPERIMENT_PSYCHOPY_AU2220019_AU2220225,2024.2.4,59.92566816540486,2025-04-01 12h27.39.787640 +0530,
,,,,,,,,,,,,,,,,,,,,,,13.57591739995405,13.584715600009076,13.584715600009076,18.532275400008075,space,4.93579919997137,None,,,,,,,,,,,,,A21,103,2025-04-01_12h27.27.000,416_EXPERIMENT_PSYCHOPY_AU2220019_AU2220225,2024.2.4,59.92566816540486,2025-04-01 12h27.39.787640 +0530,
surprise_upper_blur.jpg,s,0,0,0,None,0,,,0,0,0,4,18.655579300015233,,,,,,,,,,,,,,,,18.649795199977234,18.655579300015233,20.08851509995293,20.08851509995293,20.162649699952453,20.5965489000082,20.797273300006054,None,0,,,,A21,103,2025-04-01_12h27.27.000,416_EXPERIMENT_PSYCHOPY_AU2220019_AU2220225,2024.2.4,59.92566816540486,2025-04-01 12h27.39.787640 +0530,
fear_upper_blur.jpg,f,1,1,0,f,1,0.5380832999944687,None,0,1,1,2,20.846008599968627,,,,,,,,,,,,,,,,20.8404647000134,20.846008599968627,22.297427900019102,22.297427900019102,22.34726359997876,22.797125699929893,22.848773999954574,f,1,0.5380832999944687,None,,A21,103,2025-04-01_12h27.27.000,416_EXPERIMENT_PSYCHOPY_AU2220019_AU2220225,2024.2.4,59.92566816540486,2025-04-01 12h27.39.787640 +0530,
fear_lower_blur.jpg,f,2,2,0,None,0,,,0,2,2,3,22.897457399987616,,,,,,,,,,,,,,,,22.890987299964763,22.897457399987616,24.364288699929602,24.364288699929602,24.39732059999369,24.87907859997358,25.09909539995715,None,0,,,25.14682060002815,A21,103,2025-04-01_12h27.27.000,416_EXPERIMENT_PSYCHOPY_AU2220019_AU2220225,2024.2.4,59.92566816540486,2025-04-01 12h27.39.787640 +0530,
fear.jpg,f,3,3,0,f,1,0.43604379997123033,None,0,3,3,0,25.14682060002815,,,,,,,,,,,,,,,,25.140549700008705,25.14682060002815,26.614402399980463,26.614402399980463,26.647776799974963,,27.0654381000204,f,1,0.43604379997123033,None,,A21,103,2025-04-01_12h27.27.000,416_EXPERIMENT_PSYCHOPY_AU2220019_AU2220225,2024.2.4,59.92566816540486,2025-04-01 12h27.39.787640 +0530,
surprise_lower_blur.jpg,s,4,4,0,s,1,0.7061747999396175,None,0,4,4,5,27.11267159995623,,,,,,,,,,,,,,,,27.106537699932232,27.11267159995623,28.58079999999609,28.58079999999609,28.614438300020993,29.095378499943763,29.299276800011285,s,1,0.7061747999396175,None,,A21,103,2025-04-01_12h27.27.000,416_EXPERIMENT_PSYCHOPY_AU2220019_AU2220225,2024.2.4,59.92566816540486,2025-04-01 12h27.39.787640 +0530,
surprise.jpg,s,5,5,0,s,1,0.45161370001733303,None,0,5,5,1,29.350171099998988,,,,,,,,,,,,,,,,29.34412349993363,29.350171099998988,30.812324599944986,30.812324599944986,30.86407979996875,,31.267381399986334,s,1,0.45161370001733303,None,,A21,103,2025-04-01_12h27.27.000,416_EXPERIMENT_PSYCHOPY_AU2220019_AU2220225,2024.2.4,59.92566816540486,2025-04-01 12h27.39.787640 +0530,
surprise_lower_blur.jpg,s,6,0,1,s,1,0.3954613000387326,None,1,0,6,5,31.28652530000545,,,,,,,,,,,,,,,,31.280820599989966,31.28652530000545,32.78028249996714,32.78028249996714,32.79725589998998,,33.183448099996895,s,1,0.3954613000387326,None,,A21,103,2025-04-01_12h27.27.000,416_EXPERIMENT_PSYCHOPY_AU2220019_AU2220225,2024.2.4,59.92566816540486,2025-04-01 12h27.39.787640 +0530,
surprise.jpg,s,7,1,1,s,1,0.3991035999497399,None,1,1,7,1,33.202683500014246,,,,,,,,,,,,,,,,33.196984000038356,33.202683500014246,34.69666909996886,34.69666909996886,34.712410400039516,,35.098607899970375,s,1,0.3991035999497399,None,,A21,103,2025-04-01_12h27.27.000,416_EXPERIMENT_PSYCHOPY_AU2220019_AU2220225,2024.2.4,59.92566816540486,2025-04-01 12h27.39.787640 +0530,
fear_upper_blur.jpg,f,8,2,1,f,1,0.6096862000413239,None,1,2,8,2,35.1174351000227,,,,,,,,,,,,,,,,35.111540799960494,35.1174351000227,36.61224889999721,36.61224889999721,36.62887979997322,37.113694199942984,37.23149169993121,f,1,0.6096862000413239,None,,A21,103,2025-04-01_12h27.27.000,416_EXPERIMENT_PSYCHOPY_AU2220019_AU2220225,2024.2.4,59.92566816540486,2025-04-01 12h27.39.787640 +0530,
fear_lower_blur.jpg,f,9,3,1,f,1,0.4751890000188723,None,1,3,9,3,37.25057489995379,,,,,,,,,,,,,,,,37.244337099953555,37.25057489995379,38.73046480002813,38.73046480002813,38.76336340000853,,39.2135685000103,f,1,0.4751890000188723,None,,A21,103,2025-04-01_12h27.27.000,416_EXPERIMENT_PSYCHOPY_AU2220019_AU2220225,2024.2.4,59.92566816540486,2025-04-01 12h27.39.787640 +0530,
fear.jpg,f,10,4,1,f,1,0.3797452999278903,None,1,4,10,0,39.231926599983126,,,,,,,,,,,,,,,,39.22685179999098,39.231926599983126,40.714228600030765,40.714228600030765,40.74724830000196,,41.09971049998421,f,1,0.3797452999278903,None,,A21,103,2025-04-01_12h27.27.000,416_EXPERIMENT_PSYCHOPY_AU2220019_AU2220225,2024.2.4,59.92566816540486,2025-04-01 12h27.39.787640 +0530,
surprise_upper_blur.jpg,s,11,5,1,f,0,0.5948950001038611,None,1,5,11,4,41.120013499981724,,,,,,,,,,,,,,,,41.114426799933426,41.120013499981724,42.614491699961945,42.614491699961945,42.63123459997587,43.12874770001508,43.21703079994768,f,0,0.5948950001038611,None,,A21,103,2025-04-01_12h27.27.000,416_EXPERIMENT_PSYCHOPY_AU2220019_AU2220225,2024.2.4,59.92566816540486,2025-04-01 12h27.39.787640 +0530,
surprise_lower_blur.jpg,s,12,0,2,s,1,0.35703559999819845,None,2,0,12,5,43.236325899953954,,,,,,,,,,,,,,,,43.23042679997161,43.236325899953954,44.73139860003721,44.73139860003721,44.74817749997601,,45.09998719999567,s,1,0.35703559999819845,None,,A21,103,2025-04-01_12h27.27.000,416_EXPERIMENT_PSYCHOPY_AU2220019_AU2220225,2024.2.4,59.92566816540486,2025-04-01 12h27.39.787640 +0530,
surprise.jpg,s,13,1,2,s,1,0.35693219990935177,None,2,1,13,1,45.119894700008444,,,,,,,,,,,,,,,,45.11417159996927,45.119894700008444,46.61477929993998,46.61477929993998,46.63119059999008,,46.98259439994581,s,1,0.35693219990935177,None,,A21,103,2025-04-01_12h27.27.000,416_EXPERIMENT_PSYCHOPY_AU2220019_AU2220225,2024.2.4,59.92566816540486,2025-04-01 12h27.39.787640 +0530,
fear_upper_blur.jpg,f,14,2,2,f,1,0.633897399995476,None,2,2,14,2,47.00086599995848,,,,,,,,,,,,,,,,46.99564249999821,47.00086599995848,48.49790169997141,48.49790169997141,48.514794199960306,49.014207100030035,49.149179699947126,f,1,0.633897399995476,None,,A21,103,2025-04-01_12h27.27.000,416_EXPERIMENT_PSYCHOPY_AU2220019_AU2220225,2024.2.4,59.92566816540486,2025-04-01 12h27.39.787640 +0530,
fear.jpg,f,15,3,2,f,1,0.4084452000679448,None,2,3,15,0,49.16535279992968,,,,,,,,,,,,,,,,49.15995340002701,49.16535279992968,50.66452859994024,50.66452859994024,50.66452859994024,,51.08343949995469,f,1,0.4084452000679448,None,,A21,103,2025-04-01_12h27.27.000,416_EXPERIMENT_PSYCHOPY_AU2220019_AU2220225,2024.2.4,59.92566816540486,2025-04-01 12h27.39.787640 +0530,
fear_lower_blur.jpg,f,16,4,2,f,1,0.36648339999374,None,2,4,16,3,51.102276999969035,,,,,,,,,,,,,,,,51.096678099944256,51.102276999969035,52.5967555999523,52.5967555999523,52.61304490000475,,52.98187689995393,f,1,0.36648339999374,None,,A21,103,2025-04-01_12h27.27.000,416_EXPERIMENT_PSYCHOPY_AU2220019_AU2220225,2024.2.4,59.92566816540486,2025-04-01 12h27.39.787640 +0530,
surprise_upper_blur.jpg,s,17,5,2,s,1,0.5075932999607176,None,2,5,17,4,52.99700139998458,,,,,,,,,,,,,,,,52.99108730000444,52.99700139998458,54.48121400002856,54.48121400002856,54.497698099934496,54.9811703999294,55.00118369993288,s,1,0.5075932999607176,None,,A21,103,2025-04-01_12h27.27.000,416_EXPERIMENT_PSYCHOPY_AU2220019_AU2220225,2024.2.4,59.92566816540486,2025-04-01 12h27.39.787640 +0530,
fear.jpg,f,18,0,3,None,0,,,3,0,18,0,55.022101199952886,,,,,,,,,,,,,,,,55.015916500007734,55.022101199952886,56.51485549996141,56.51485549996141,56.53125709993765,57.01489330001641,57.24925220001023,None,0,,,57.26690859999508,A21,103,2025-04-01_12h27.27.000,416_EXPERIMENT_PSYCHOPY_AU2220019_AU2220225,2024.2.4,59.92566816540486,2025-04-01 12h27.39.787640 +0530,
fear_upper_blur.jpg,f,19,1,3,f,1,0.44250370003283024,None,3,1,19,2,57.26690859999508,,,,,,,,,,,,,,,,57.26174500002526,57.26690859999508,58.76681289996486,58.76681289996486,58.781222700024955,,59.21620839997195,f,1,0.44250370003283024,None,,A21,103,2025-04-01_12h27.27.000,416_EXPERIMENT_PSYCHOPY_AU2220019_AU2220225,2024.2.4,59.92566816540486,2025-04-01 12h27.39.787640 +0530,
fear_lower_blur.jpg,f,20,2,3,f,1,0.5135027000214905,None,3,2,20,3,59.23108850000426,,,,,,,,,,,,,,,,59.22555079997983,59.23108850000426,60.72961659997236,60.72961659997236,60.72961659997236,61.231642800034024,61.25070209999103,f,1,0.5135027000214905,None,,A21,103,2025-04-01_12h27.27.000,416_EXPERIMENT_PSYCHOPY_AU2220019_AU2220225,2024.2.4,59.92566816540486,2025-04-01 12h27.39.787640 +0530,
surprise_upper_blur.jpg,s,21,3,3,s,1,0.637903599999845,None,3,3,21,4,61.27004750003107,,,,,,,,,,,,,,,,61.26371949992608,61.27004750003107,62.76249829994049,62.76249829994049,62.779504999984056,63.26365590002388,63.41323329997249,s,1,0.637903599999845,None,,A21,103,2025-04-01_12h27.27.000,416_EXPERIMENT_PSYCHOPY_AU2220019_AU2220225,2024.2.4,59.92566816540486,2025-04-01 12h27.39.787640 +0530,
surprise_lower_blur.jpg,s,22,4,3,s,1,0.30265809991396964,None,3,4,22,5,63.42938560002949,,,,,,,,,,,,,,,,63.42240879999008,63.42938560002949,64.91281909996178,64.91281909996178,64.92861970001832,,65.23328759998549,s,1,0.30265809991396964,None,,A21,103,2025-04-01_12h27.27.000,416_EXPERIMENT_PSYCHOPY_AU2220019_AU2220225,2024.2.4,59.92566816540486,2025-04-01 12h27.39.787640 +0530,
surprise.jpg,s,23,5,3,s,1,0.45708049996756017,None,3,5,23,1,65.25240739993751,,,,,,,,,,,,,,,,65.24659330002032,65.25240739993751,66.74584510002751,66.74584510002751,66.76249250001274,,67.21362970001064,s,1,0.45708049996756017,None,,A21,103,2025-04-01_12h27.27.000,416_EXPERIMENT_PSYCHOPY_AU2220019_AU2220225,2024.2.4,59.92566816540486,2025-04-01 12h27.39.787640 +0530,
surprise_upper_blur.jpg,s,24,0,4,f,0,0.43066579999867827,None,4,0,24,4,67.23140359995887,,,,,,,,,,,,,,,,67.22592829994392,67.23140359995887,68.71447260002606,68.71447260002606,68.73136059998069,,69.14828480000142,f,0,0.43066579999867827,None,,A21,103,2025-04-01_12h27.27.000,416_EXPERIMENT_PSYCHOPY_AU2220019_AU2220225,2024.2.4,59.92566816540486,2025-04-01 12h27.39.787640 +0530,
surprise.jpg,s,25,1,4,s,1,0.6201306999428198,None,4,1,25,1,69.16690209996887,,,,,,,,,,,,,,,,69.16172079998069,69.16690209996887,70.64746899995953,70.64746899995953,70.67941370001063,71.16463320003822,71.28345220000483,s,1,0.6201306999428198,None,,A21,103,2025-04-01_12h27.27.000,416_EXPERIMENT_PSYCHOPY_AU2220019_AU2220225,2024.2.4,59.92566816540486,2025-04-01 12h27.39.787640 +0530,
fear_upper_blur.jpg,f,26,2,4,f,1,0.46592889993917197,None,4,2,26,2,71.3026441000402,,,,,,,,,,,,,,,,71.29677439993247,71.3026441000402,72.79744749993552,72.79744749993552,72.81399019993842,,73.26689620001707,f,1,0.46592889993917197,None,,A21,103,2025-04-01_12h27.27.000,416_EXPERIMENT_PSYCHOPY_AU2220019_AU2220225,2024.2.4,59.92566816540486,2025-04-01 12h27.39.787640 +0530,
fear_lower_blur.jpg,f,27,3,4,f,1,0.4012656999984756,None,4,3,27,3,73.28597740002442,,,,,,,,,,,,,,,,73.27970389998518,73.28597740002442,74.78083399997558,74.78083399997558,74.7971261999337,,75.19949249993078,f,1,0.4012656999984756,None,,A21,103,2025-04-01_12h27.27.000,416_EXPERIMENT_PSYCHOPY_AU2220019_AU2220225,2024.2.4,59.92566816540486,2025-04-01 12h27.39.787640 +0530,
surprise_lower_blur.jpg,s,28,4,4,s,1,0.4472605000482872,None,4,4,28,5,75.21663289994467,,,,,,,,,,,,,,,,75.21188880002592,75.21663289994467,76.71415429993067,76.71415429993067,76.73085409996565,,77.16899030003697,s,1,0.4472605000482872,None,,A21,103,2025-04-01_12h27.27.000,416_EXPERIMENT_PSYCHOPY_AU2220019_AU2220225,2024.2.4,59.92566816540486,2025-04-01 12h27.39.787640 +0530,
fear.jpg,f,29,5,4,None,0,,,4,5,29,0,77.18923989997711,,,,,,,,,,,,,,,,77.18339200003538,77.18923989997711,78.68064339994453,78.68064339994453,78.69683120003901,79.18053130002227,79.41580039996188,None,0,,,79.43524619995151,A21,103,2025-04-01_12h27.27.000,416_EXPERIMENT_PSYCHOPY_AU2220019_AU2220225,2024.2.4,59.92566816540486,2025-04-01 12h27.39.787640 +0530,
fear.jpg,f,30,0,5,s,0,0.5698143999325112,None,5,0,30,0,79.43524619995151,,,,,,,,,,,,,,,,79.43007460003719,79.43524619995151,80.93127950001508,80.93127950001508,80.94756090000737,81.43083949992433,81.51610989996698,s,0,0.5698143999325112,None,,A21,103,2025-04-01_12h27.27.000,416_EXPERIMENT_PSYCHOPY_AU2220019_AU2220225,2024.2.4,59.92566816540486,2025-04-01 12h27.39.787640 +0530,
fear_lower_blur.jpg,f,31,1,5,s,0,0.609313299995847,None,5,1,31,3,81.53444529999979,,,,,,,,,,,,,,,,81.52894799993373,81.53444529999979,83.03044140001293,83.03044140001293,83.04831350001041,83.52960489992984,83.64894909993745,s,0,0.609313299995847,None,,A21,103,2025-04-01_12h27.27.000,416_EXPERIMENT_PSYCHOPY_AU2220019_AU2220225,2024.2.4,59.92566816540486,2025-04-01 12h27.39.787640 +0530,
surprise.jpg,s,32,2,5,s,1,0.5981567000271752,None,5,2,32,1,83.669344099937,,,,,,,,,,,,,,,,83.66338969999924,83.669344099937,85.16509909997694,85.16509909997694,85.18042580003385,85.67969279992394,85.76627010002267,s,1,0.5981567000271752,None,,A21,103,2025-04-01_12h27.27.000,416_EXPERIMENT_PSYCHOPY_AU2220019_AU2220225,2024.2.4,59.92566816540486,2025-04-01 12h27.39.787640 +0530,
surprise_lower_blur.jpg,s,33,3,5,s,1,0.5774156999541447,None,5,3,33,5,85.78145060001407,,,,,,,,,,,,,,,,85.77618939999957,85.78145060001407,87.2804094000021,87.2804094000021,87.2804094000021,87.77935339999385,87.86319199996069,s,1,0.5774156999541447,None,,A21,103,2025-04-01_12h27.27.000,416_EXPERIMENT_PSYCHOPY_AU2220019_AU2220225,2024.2.4,59.92566816540486,2025-04-01 12h27.39.787640 +0530,
surprise_upper_blur.jpg,s,34,4,5,s,1,0.5285404999740422,None,5,4,34,4,87.88105309999082,,,,,,,,,,,,,,,,87.8751123000402,87.88105309999082,89.36426479998045,89.36426479998045,89.38055090000853,89.8788232000079,89.89695449999999,s,1,0.5285404999740422,None,,A21,103,2025-04-01_12h27.27.000,416_EXPERIMENT_PSYCHOPY_AU2220019_AU2220225,2024.2.4,59.92566816540486,2025-04-01 12h27.39.787640 +0530,
fear_upper_blur.jpg,f,35,5,5,f,1,0.3942334000021219,None,5,5,35,2,89.91562300000805,,,,,,,,,,,,,,,,89.90995430003386,89.91562300000805,91.39730860001873,91.39730860001873,91.43039909994695,,91.7994707999751,f,1,0.3942334000021219,None,,A21,103,2025-04-01_12h27.27.000,416_EXPERIMENT_PSYCHOPY_AU2220019_AU2220225,2024.2.4,59.92566816540486,2025-04-01 12h27.39.787640 +0530,
fear_lower_blur.jpg,f,36,0,6,f,1,0.3208955000154674,None,6,0,36,3,91.81780870002694,,,,,,,,,,,,,,,,91.81230989994947,91.81780870002694,93.31229579995852,93.31229579995852,93.33057160000317,,93.64768559997901,f,1,0.3208955000154674,None,,A21,103,2025-04-01_12h27.27.000,416_EXPERIMENT_PSYCHOPY_AU2220019_AU2220225,2024.2.4,59.92566816540486,2025-04-01 12h27.39.787640 +0530,
fear.jpg,f,37,1,6,f,1,0.26375720009673387,None,6,1,37,0,93.66738370002713,,,,,,,,,,,,,,,,93.6610159999691,93.66738370002713,95.14708399993833,95.14708399993833,95.17878580000252,,95.41652530001011,f,1,0.26375720009673387,None,,A21,103,2025-04-01_12h27.27.000,416_EXPERIMENT_PSYCHOPY_AU2220019_AU2220225,2024.2.4,59.92566816540486,2025-04-01 12h27.39.787640 +0530,
surprise_upper_blur.jpg,s,38,2,6,s,1,0.5446559999836609,None,6,2,38,4,95.43436830001883,,,,,,,,,,,,,,,,95.42902599996887,95.43436830001883,96.92897439992521,96.92897439992521,96.94552039995324,97.42887730000075,97.48237169999629,s,1,0.5446559999836609,None,,A21,103,2025-04-01_12h27.27.000,416_EXPERIMENT_PSYCHOPY_AU2220019_AU2220225,2024.2.4,59.92566816540486,2025-04-01 12h27.39.787640 +0530,
surprise.jpg,s,39,3,6,s,1,0.29464940004982054,None,6,3,39,1,97.50180440000258,,,,,,,,,,,,,,,,97.49642770003993,97.50180440000258,98.99687599996105,98.99687599996105,99.01384040003177,,99.29926939995494,s,1,0.29464940004982054,None,,A21,103,2025-04-01_12h27.27.000,416_EXPERIMENT_PSYCHOPY_AU2220019_AU2220225,2024.2.4,59.92566816540486,2025-04-01 12h27.39.787640 +0530,
fear_upper_blur.jpg,f,40,4,6,s,0,0.22174199996516109,None,6,4,40,2,99.31800510000903,,,,,,,,,,,,,,,,99.31261579995044,99.31800510000903,100.81357210001443,100.81357210001443,100.83093239995651,,101.04932510002982,s,0,0.22174199996516109,None,,A21,103,2025-04-01_12h27.27.000,416_EXPERIMENT_PSYCHOPY_AU2220019_AU2220225,2024.2.4,59.92566816540486,2025-04-01 12h27.39.787640 +0530,
surprise_lower_blur.jpg,s,41,5,6,f,0,0.5066459999652579,None,6,5,41,5,101.0689705000259,,,,,,,,,,,,,,,,101.06264260003809,101.0689705000259,102.56455340003595,102.56455340003595,102.58031190000474,103.0639335999731,103.08278799999971,f,0,0.5066459999652579,None,,A21,103,2025-04-01_12h27.27.000,416_EXPERIMENT_PSYCHOPY_AU2220019_AU2220225,2024.2.4,59.92566816540486,2025-04-01 12h27.39.787640 +0530,
fear_upper_blur.jpg,f,42,0,7,f,1,0.5308235000120476,None,7,0,42,2,103.10197279998101,,,,,,,,,,,,,,,,103.09589320002124,103.10197279998101,104.59665790002327,104.59665790002327,104.61329659994226,105.09769600001164,105.13381100003608,f,1,0.5308235000120476,None,,A21,103,2025-04-01_12h27.27.000,416_EXPERIMENT_PSYCHOPY_AU2220019_AU2220225,2024.2.4,59.92566816540486,2025-04-01 12h27.39.787640 +0530,
surprise_upper_blur.jpg,s,43,1,7,s,1,0.5620281000155956,None,7,1,43,4,105.1536466999678,,,,,,,,,,,,,,,,105.14832939999178,105.1536466999678,106.64728010003455,106.64728010003455,106.66403570002876,107.14687549998052,107.21368739998434,s,1,0.5620281000155956,None,,A21,103,2025-04-01_12h27.27.000,416_EXPERIMENT_PSYCHOPY_AU2220019_AU2220225,2024.2.4,59.92566816540486,2025-04-01 12h27.39.787640 +0530,
surprise_lower_blur.jpg,s,44,2,7,s,1,0.2547603000421077,None,7,2,44,5,107.23145870002918,,,,,,,,,,,,,,,,107.22603250003885,107.23145870002918,108.72862639999948,108.72862639999948,108.7474434999749,,108.99967889999971,s,1,0.2547603000421077,None,,A21,103,2025-04-01_12h27.27.000,416_EXPERIMENT_PSYCHOPY_AU2220019_AU2220225,2024.2.4,59.92566816540486,2025-04-01 12h27.39.787640 +0530,
surprise.jpg,s,45,3,7,s,1,0.3981740000890568,None,7,3,45,1,109.01947419997305,,,,,,,,,,,,,,,,109.01366920000874,109.01947419997305,110.51239009993151,110.51239009993151,110.52932929992676,,110.91640829993412,s,1,0.3981740000890568,None,,A21,103,2025-04-01_12h27.27.000,416_EXPERIMENT_PSYCHOPY_AU2220019_AU2220225,2024.2.4,59.92566816540486,2025-04-01 12h27.39.787640 +0530,
fear_lower_blur.jpg,f,46,4,7,f,1,0.3529551000101492,None,7,4,46,3,110.93499350000639,,,,,,,,,,,,,,,,110.92941099999007,110.93499350000639,112.43052139994688,112.43052139994688,112.44753729994409,,112.79951459995937,f,1,0.3529551000101492,None,,A21,103,2025-04-01_12h27.27.000,416_EXPERIMENT_PSYCHOPY_AU2220019_AU2220225,2024.2.4,59.92566816540486,2025-04-01 12h27.39.787640 +0530,
fear.jpg,f,47,5,7,f,1,0.2975547999376431,None,7,5,47,0,112.81834009999875,,,,,,,,,,,,,,,,112.81293190002907,112.81834009999875,114.3141164999688,114.3141164999688,114.3305036999518,,114.61537999997381,f,1,0.2975547999376431,None,,A21,103,2025-04-01_12h27.27.000,416_EXPERIMENT_PSYCHOPY_AU2220019_AU2220225,2024.2.4,59.92566816540486,2025-04-01 12h27.39.787640 +0530,
surprise_lower_blur.jpg,s,48,0,8,s,1,0.41288600000552833,None,8,0,48,5,114.63492009998299,,,,,,,,,,,,,,,,114.62952710001264,114.63492009998299,116.13088960002642,116.13088960002642,116.14734170003794,,116.55032029992435,s,1,0.41288600000552833,None,,A21,103,2025-04-01_12h27.27.000,416_EXPERIMENT_PSYCHOPY_AU2220019_AU2220225,2024.2.4,59.92566816540486,2025-04-01 12h27.39.787640 +0530,
fear_upper_blur.jpg,f,49,1,8,s,0,0.3945864000124857,None,8,1,49,2,116.56947709992528,,,,,,,,,,,,,,,,116.56395320000593,116.56947709992528,118.06406639993656,118.06406639993656,118.08031779993325,,118.46674970001914,s,0,0.3945864000124857,None,,A21,103,2025-04-01_12h27.27.000,416_EXPERIMENT_PSYCHOPY_AU2220019_AU2220225,2024.2.4,59.92566816540486,2025-04-01 12h27.39.787640 +0530,
fear.jpg,f,50,2,8,s,0,0.4291994000086561,None,8,2,50,0,118.48739419993944,,,,,,,,,,,,,,,,118.48168910003733,118.48739419993944,119.97891920001712,119.97891920001712,119.99764009995852,,120.4164230999304,s,0,0.4291994000086561,None,,A21,103,2025-04-01_12h27.27.000,416_EXPERIMENT_PSYCHOPY_AU2220019_AU2220225,2024.2.4,59.92566816540486,2025-04-01 12h27.39.787640 +0530,
fear_lower_blur.jpg,f,51,3,8,f,1,0.7193826000439003,None,8,3,51,3,120.43609059997834,,,,,,,,,,,,,,,,120.43033470003866,120.43609059997834,121.93094729993027,121.93094729993027,121.94719730003271,122.43143430002965,122.66369259997737,f,1,0.7193826000439003,None,,A21,103,2025-04-01_12h27.27.000,416_EXPERIMENT_PSYCHOPY_AU2220019_AU2220225,2024.2.4,59.92566816540486,2025-04-01 12h27.39.787640 +0530,
surprise.jpg,s,52,4,8,s,1,0.33764350006822497,None,8,4,52,1,122.68027509993408,,,,,,,,,,,,,,,,122.67327120003756,122.68027509993408,124.16431669995654,124.16431669995654,124.18026449996978,,124.51736749999691,s,1,0.33764350006822497,None,,A21,103,2025-04-01_12h27.27.000,416_EXPERIMENT_PSYCHOPY_AU2220019_AU2220225,2024.2.4,59.92566816540486,2025-04-01 12h27.39.787640 +0530,
surprise_upper_blur.jpg,s,53,5,8,s,1,0.6453003000933677,None,8,5,53,4,124.53582949994598,,,,,,,,,,,,,,,,124.53090589994099,124.53582949994598,126.02944740001112,126.02944740001112,126.04532969999127,126.53022610000335,126.68049709999468,s,1,0.6453003000933677,None,,A21,103,2025-04-01_12h27.27.000,416_EXPERIMENT_PSYCHOPY_AU2220019_AU2220225,2024.2.4,59.92566816540486,2025-04-01 12h27.39.787640 +0530,
surprise.jpg,s,54,0,9,s,1,0.48492800001986325,None,9,0,54,1,126.69761199993081,,,,,,,,,,,,,,,,126.69213909993414,126.69761199993081,128.180447599967,128.180447599967,128.19627820001915,128.68063620000612,128.6831109999912,s,1,0.48492800001986325,None,,A21,103,2025-04-01_12h27.27.000,416_EXPERIMENT_PSYCHOPY_AU2220019_AU2220225,2024.2.4,59.92566816540486,2025-04-01 12h27.39.787640 +0530,
fear.jpg,f,55,1,9,f,1,0.46401969995349646,None,9,1,55,0,128.69905169995036,,,,,,,,,,,,,,,,128.6943414999405,128.69905169995036,130.1974563000258,130.1974563000258,130.21365519997198,,130.6667987999972,f,1,0.46401969995349646,None,,A21,103,2025-04-01_12h27.27.000,416_EXPERIMENT_PSYCHOPY_AU2220019_AU2220225,2024.2.4,59.92566816540486,2025-04-01 12h27.39.787640 +0530,
surprise_upper_blur.jpg,s,56,2,9,s,1,0.5071007999358699,None,9,2,56,4,130.68400729994755,,,,,,,,,,,,,,,,130.67950319999363,130.68400729994755,132.17870269995183,132.17870269995183,132.19512199994642,132.68057029997,132.69898610003293,s,1,0.5071007999358699,None,,A21,103,2025-04-01_12h27.27.000,416_EXPERIMENT_PSYCHOPY_AU2220019_AU2220225,2024.2.4,59.92566816540486,2025-04-01 12h27.39.787640 +0530,
surprise_lower_blur.jpg,s,57,3,9,s,1,0.6175367999821901,None,9,3,57,5,132.7171538999537,,,,,,,,,,,,,,,,132.71189419995062,132.7171538999537,134.21216989995446,134.21216989995446,134.2303201999748,134.71242009999696,134.8466774999397,s,1,0.6175367999821901,None,,A21,103,2025-04-01_12h27.27.000,416_EXPERIMENT_PSYCHOPY_AU2220019_AU2220225,2024.2.4,59.92566816540486,2025-04-01 12h27.39.787640 +0530,
fear_lower_blur.jpg,f,58,4,9,s,0,0.493728999979794,None,9,4,58,3,134.8655789999757,,,,,,,,,,,,,,,,134.85901779995766,134.8655789999757,136.36223800003063,136.36223800003063,136.37898369994946,136.86390749993734,136.8659989000298,s,0,0.493728999979794,None,,A21,103,2025-04-01_12h27.27.000,416_EXPERIMENT_PSYCHOPY_AU2220019_AU2220225,2024.2.4,59.92566816540486,2025-04-01 12h27.39.787640 +0530,
fear_upper_blur.jpg,f,59,5,9,f,1,0.3924811000470072,None,9,5,59,2,136.88440939993598,,,,,,,,,,,,,,,,136.8791219999548,136.88440939993598,138.3804449000163,138.3804449000163,138.39693319995422,,138.78358719998505,f,1,0.3924811000470072,None,,A21,103,2025-04-01_12h27.27.000,416_EXPERIMENT_PSYCHOPY_AU2220019_AU2220225,2024.2.4,59.92566816540486,2025-04-01 12h27.39.787640 +0530,
surprise_lower_blur.jpg,s,60,0,10,s,1,0.5030647000530735,None,10,0,60,5,138.80242890003137,,,,,,,,,,,,,,,,138.7966063999338,138.80242890003137,140.29576539993286,140.29576539993286,140.3139666999923,140.7974108000053,140.81580480001867,s,1,0.5030647000530735,None,,A21,103,2025-04-01_12h27.27.000,416_EXPERIMENT_PSYCHOPY_AU2220019_AU2220225,2024.2.4,59.92566816540486,2025-04-01 12h27.39.787640 +0530,
surprise_upper_blur.jpg,s,61,1,10,s,1,0.5348338999319822,None,10,1,61,4,140.8333162999479,,,,,,,,,,,,,,,,140.82840100000612,140.8333162999479,142.329803599976,142.329803599976,142.34649829997215,142.83045130001847,142.8817587000085,s,1,0.5348338999319822,None,,A21,103,2025-04-01_12h27.27.000,416_EXPERIMENT_PSYCHOPY_AU2220019_AU2220225,2024.2.4,59.92566816540486,2025-04-01 12h27.39.787640 +0530,
surprise.jpg,s,62,2,10,s,1,0.49399410001933575,None,10,2,62,1,142.89782079996075,,,,,,,,,,,,,,,,142.89297469996382,142.89782079996075,144.38044640002772,144.38044640002772,144.39761350001208,144.8807020999957,144.88294429995585,s,1,0.49399410001933575,None,,A21,103,2025-04-01_12h27.27.000,416_EXPERIMENT_PSYCHOPY_AU2220019_AU2220225,2024.2.4,59.92566816540486,2025-04-01 12h27.39.787640 +0530,
fear_upper_blur.jpg,f,63,3,10,f,1,0.358907499932684,None,10,3,63,2,144.90221740002744,,,,,,,,,,,,,,,,144.89586309995502,144.90221740002744,146.39705010002945,146.39705010002945,146.41427609999664,,146.76553189998958,f,1,0.358907499932684,None,,A21,103,2025-04-01_12h27.27.000,416_EXPERIMENT_PSYCHOPY_AU2220019_AU2220225,2024.2.4,59.92566816540486,2025-04-01 12h27.39.787640 +0530,
fear.jpg,f,64,4,10,f,1,0.32536220003385097,None,10,4,64,0,146.78488409996498,,,,,,,,,,,,,,,,146.77894610003568,146.78488409996498,148.2791727000149,148.2791727000149,148.29549139994197,,148.61336670001037,f,1,0.32536220003385097,None,,A21,103,2025-04-01_12h27.27.000,416_EXPERIMENT_PSYCHOPY_AU2220019_AU2220225,2024.2.4,59.92566816540486,2025-04-01 12h27.39.787640 +0530,
fear_lower_blur.jpg,f,65,5,10,f,1,0.3228980000130832,None,10,5,65,3,148.63284350000322,,,,,,,,,,,,,,,,148.62663840001915,148.63284350000322,150.11357549997047,150.11357549997047,150.14686310000252,,150.44951359997503,f,1,0.3228980000130832,None,,A21,103,2025-04-01_12h27.27.000,416_EXPERIMENT_PSYCHOPY_AU2220019_AU2220225,2024.2.4,59.92566816540486,2025-04-01 12h27.39.787640 +0530,
fear.jpg,f,66,0,11,f,1,0.45607240009121597,None,11,0,66,0,150.46834679995663,,,,,,,,,,,,,,,,150.46323819993995,150.46834679995663,151.9642143000383,151.9642143000383,151.98032560001593,,152.4329546999652,f,1,0.45607240009121597,None,,A21,103,2025-04-01_12h27.27.000,416_EXPERIMENT_PSYCHOPY_AU2220019_AU2220225,2024.2.4,59.92566816540486,2025-04-01 12h27.39.787640 +0530,
surprise_lower_blur.jpg,s,67,1,11,s,1,0.43802339991088957,None,11,1,67,5,152.45158949994948,,,,,,,,,,,,,,,,152.44621690001804,152.45158949994948,153.9474461999489,153.9474461999489,153.96398739994038,,154.39957959996536,s,1,0.43802339991088957,None,,A21,103,2025-04-01_12h27.27.000,416_EXPERIMENT_PSYCHOPY_AU2220019_AU2220225,2024.2.4,59.92566816540486,2025-04-01 12h27.39.787640 +0530,
surprise.jpg,s,68,2,11,s,1,0.3830808000639081,None,11,2,68,1,154.4175354000181,,,,,,,,,,,,,,,,154.41266839997843,154.4175354000181,155.91439489996992,155.91439489996992,155.93033350002952,,156.3011475999374,s,1,0.3830808000639081,None,,A21,103,2025-04-01_12h27.27.000,416_EXPERIMENT_PSYCHOPY_AU2220019_AU2220225,2024.2.4,59.92566816540486,2025-04-01 12h27.39.787640 +0530,
fear_upper_blur.jpg,f,69,3,11,f,1,0.43326419999357313,None,11,3,69,2,156.31969339994248,,,,,,,,,,,,,,,,156.31419770000502,156.31969339994248,157.81313659995794,157.81313659995794,157.8310234999517,,158.24975149997044,f,1,0.43326419999357313,None,,A21,103,2025-04-01_12h27.27.000,416_EXPERIMENT_PSYCHOPY_AU2220019_AU2220225,2024.2.4,59.92566816540486,2025-04-01 12h27.39.787640 +0530,
surprise_upper_blur.jpg,s,70,4,11,s,1,0.4670935000758618,None,11,4,70,4,158.26843279995956,,,,,,,,,,,,,,,,158.2628565999912,158.26843279995956,159.7637579999864,159.7637579999864,159.78116939996835,,160.23422660003416,s,1,0.4670935000758618,None,,A21,103,2025-04-01_12h27.27.000,416_EXPERIMENT_PSYCHOPY_AU2220019_AU2220225,2024.2.4,59.92566816540486,2025-04-01 12h27.39.787640 +0530,
fear_lower_blur.jpg,f,71,5,11,f,1,0.5609644000651315,None,11,5,71,3,160.25007259997074,,,,,,,,,,,,,,,,160.24546380003449,160.25007259997074,161.74736349994782,161.74736349994782,161.76380449999124,162.26412299997173,162.31657609995455,f,1,0.5609644000651315,None,,A21,103,2025-04-01_12h27.27.000,416_EXPERIMENT_PSYCHOPY_AU2220019_AU2220225,2024.2.4,59.92566816540486,2025-04-01 12h27.39.787640 +0530,
fear_upper_blur.jpg,f,72,0,12,f,1,0.5004947000415996,None,12,0,72,2,162.33422740001697,,,,,,,,,,,,,,,,162.3293849999318,162.33422740001697,163.82935439993162,163.82935439993162,163.8458885999862,164.3471145000076,164.34929669997655,f,1,0.5004947000415996,None,,A21,103,2025-04-01_12h27.27.000,416_EXPERIMENT_PSYCHOPY_AU2220019_AU2220225,2024.2.4,59.92566816540486,2025-04-01 12h27.39.787640 +0530,
fear_lower_blur.jpg,f,73,1,12,f,1,0.5138032999821007,None,12,1,73,3,164.3638396000024,,,,,,,,,,,,,,,,164.3591418999713,164.3638396000024,165.86469199997373,165.86469199997373,165.86469199997373,166.3792764999671,166.38202579994686,f,1,0.5138032999821007,None,,A21,103,2025-04-01_12h27.27.000,416_EXPERIMENT_PSYCHOPY_AU2220019_AU2220225,2024.2.4,59.92566816540486,2025-04-01 12h27.39.787640 +0530,
surprise_upper_blur.jpg,s,74,2,12,s,1,0.4578775999834761,None,12,2,74,4,166.39729310001712,,,,,,,,,,,,,,,,166.3921004999429,166.39729310001712,167.89566020003986,167.89566020003986,167.91256249998696,,168.3636437000241,s,1,0.4578775999834761,None,,A21,103,2025-04-01_12h27.27.000,416_EXPERIMENT_PSYCHOPY_AU2220019_AU2220225,2024.2.4,59.92566816540486,2025-04-01 12h27.39.787640 +0530,
fear.jpg,f,75,3,12,f,1,0.5215962000656873,None,12,3,75,0,168.38045299996156,,,,,,,,,,,,,,,,168.37463229999412,168.38045299996156,169.86439939995762,169.86439939995762,169.88107739994302,170.38061749993358,170.39857079996727,f,1,0.5215962000656873,None,,A21,103,2025-04-01_12h27.27.000,416_EXPERIMENT_PSYCHOPY_AU2220019_AU2220225,2024.2.4,59.92566816540486,2025-04-01 12h27.39.787640 +0530,
surprise.jpg,s,76,4,12,s,1,0.4290059000486508,None,12,4,76,1,170.41509699996095,,,,,,,,,,,,,,,,170.40912770002615,170.41509699996095,171.89765940001234,171.89765940001234,171.91438339999877,,172.3345034000231,s,1,0.4290059000486508,None,,A21,103,2025-04-01_12h27.27.000,416_EXPERIMENT_PSYCHOPY_AU2220019_AU2220225,2024.2.4,59.92566816540486,2025-04-01 12h27.39.787640 +0530,
surprise_lower_blur.jpg,s,77,5,12,s,1,0.41406790004111826,None,12,5,77,5,172.35283009998966,,,,,,,,,,,,,,,,172.34708380000666,172.35283009998966,173.84619840001687,173.84619840001687,173.86437560000923,,174.26471929997206,s,1,0.41406790004111826,None,,A21,103,2025-04-01_12h27.27.000,416_EXPERIMENT_PSYCHOPY_AU2220019_AU2220225,2024.2.4,59.92566816540486,2025-04-01 12h27.39.787640 +0530,
surprise_upper_blur.jpg,s,78,0,13,s,1,0.5215211000759155,None,13,0,78,4,174.2835373999551,,,,,,,,,,,,,,,,174.27773039997555,174.2835373999551,175.76493169995956,175.76493169995956,175.79766259994358,176.2641494999407,176.2990307,s,1,0.5215211000759155,None,,A21,103,2025-04-01_12h27.27.000,416_EXPERIMENT_PSYCHOPY_AU2220019_AU2220225,2024.2.4,59.92566816540486,2025-04-01 12h27.39.787640 +0530,
fear_upper_blur.jpg,f,79,1,13,f,1,0.6620489000342786,None,13,1,79,2,176.31748480000533,,,,,,,,,,,,,,,,176.31181969994213,176.31748480000533,177.81416289997287,177.81416289997287,177.8311394000193,178.314822299988,178.48188730003312,f,1,0.6620489000342786,None,,A21,103,2025-04-01_12h27.27.000,416_EXPERIMENT_PSYCHOPY_AU2220019_AU2220225,2024.2.4,59.92566816540486,2025-04-01 12h27.39.787640 +0530,
surprise.jpg,s,80,2,13,f,0,0.2408464999170974,None,13,2,80,1,178.49839309998788,,,,,,,,,,,,,,,,178.49235770001542,178.49839309998788,179.99827270000242,179.99827270000242,180.01449630002026,,180.24960420001298,f,0,0.2408464999170974,None,,A21,103,2025-04-01_12h27.27.000,416_EXPERIMENT_PSYCHOPY_AU2220019_AU2220225,2024.2.4,59.92566816540486,2025-04-01 12h27.39.787640 +0530,
fear.jpg,f,81,3,13,s,0,0.3589664000319317,None,13,3,81,0,180.26981939992402,,,,,,,,,,,,,,,,180.26410020003095,180.26981939992402,181.76486220001243,181.76486220001243,181.78110090002883,,182.13356009998824,s,0,0.3589664000319317,None,,A21,103,2025-04-01_12h27.27.000,416_EXPERIMENT_PSYCHOPY_AU2220019_AU2220225,2024.2.4,59.92566816540486,2025-04-01 12h27.39.787640 +0530,
surprise_lower_blur.jpg,s,82,4,13,s,1,0.5695479999994859,None,13,4,82,5,182.1530976999784,,,,,,,,,,,,,,,,182.14704750000965,182.1530976999784,183.64997979998589,183.64997979998589,183.6636387000326,184.16429210000206,184.23042359994724,s,1,0.5695479999994859,None,,A21,103,2025-04-01_12h27.27.000,416_EXPERIMENT_PSYCHOPY_AU2220019_AU2220225,2024.2.4,59.92566816540486,2025-04-01 12h27.39.787640 +0530,
fear_lower_blur.jpg,f,83,5,13,f,1,0.39208200003486127,None,13,5,83,3,184.24723969993647,,,,,,,,,,,,,,,,184.24029909993988,184.24723969993647,185.7311874999432,185.7311874999432,185.74614529998507,,186.1330380999716,f,1,0.39208200003486127,None,,A21,103,2025-04-01_12h27.27.000,416_EXPERIMENT_PSYCHOPY_AU2220019_AU2220225,2024.2.4,59.92566816540486,2025-04-01 12h27.39.787640 +0530,
surprise_upper_blur.jpg,s,84,0,14,s,1,0.47871389996726066,None,14,0,84,4,186.1510014999658,,,,,,,,,,,,,,,,186.14628340001218,186.1510014999658,187.64777259994298,187.64777259994298,187.66294239996932,,188.1310418000212,s,1,0.47871389996726066,None,,A21,103,2025-04-01_12h27.27.000,416_EXPERIMENT_PSYCHOPY_AU2220019_AU2220225,2024.2.4,59.92566816540486,2025-04-01 12h27.39.787640 +0530,
surprise_lower_blur.jpg,s,85,1,14,s,1,0.5665670000016689,None,14,1,85,5,188.14931459992658,,,,,,,,,,,,,,,,188.14342790003866,188.14931459992658,189.64604230003897,189.64604230003897,189.66280399996322,190.14614510000683,190.21697629999835,s,1,0.5665670000016689,None,,A21,103,2025-04-01_12h27.27.000,416_EXPERIMENT_PSYCHOPY_AU2220019_AU2220225,2024.2.4,59.92566816540486,2025-04-01 12h27.39.787640 +0530,
fear.jpg,f,86,2,14,f,1,0.4477185000432655,None,14,2,86,0,190.23632979998365,,,,,,,,,,,,,,,,190.23075480002444,190.23632979998365,191.73126599995885,191.73126599995885,191.74726570001803,,192.1833939999342,f,1,0.4477185000432655,None,,A21,103,2025-04-01_12h27.27.000,416_EXPERIMENT_PSYCHOPY_AU2220019_AU2220225,2024.2.4,59.92566816540486,2025-04-01 12h27.39.787640 +0530,
fear_lower_blur.jpg,f,87,3,14,s,0,0.48252040008082986,None,14,3,87,3,192.20147219998762,,,,,,,,,,,,,,,,192.19635640003253,192.20147219998762,193.6954693000298,193.6954693000298,193.71230140002444,194.20136810000986,194.18302809994202,s,0,0.48252040008082986,None,,A21,103,2025-04-01_12h27.27.000,416_EXPERIMENT_PSYCHOPY_AU2220019_AU2220225,2024.2.4,59.92566816540486,2025-04-01 12h27.39.787640 +0530,
fear_upper_blur.jpg,f,88,4,14,s,0,0.4936257000081241,None,14,4,88,2,194.20136810000986,,,,,,,,,,,,,,,,194.1961702000117,194.20136810000986,195.69614240003284,195.69614240003284,195.71328819997143,196.19668239995372,196.19963199994527,s,0,0.4936257000081241,None,,A21,103,2025-04-01_12h27.27.000,416_EXPERIMENT_PSYCHOPY_AU2220019_AU2220225,2024.2.4,59.92566816540486,2025-04-01 12h27.39.787640 +0530,
surprise.jpg,s,89,5,14,s,1,0.44665070006158203,None,14,5,89,1,196.2155665999744,,,,,,,,,,,,,,,,196.21044809999876,196.2155665999744,197.71397549996618,197.71397549996618,197.72998059995007,,198.16759029997047,s,1,0.44665070006158203,None,,A21,103,2025-04-01_12h27.27.000,416_EXPERIMENT_PSYCHOPY_AU2220019_AU2220225,2024.2.4,59.92566816540486,2025-04-01 12h27.39.787640 +0530,
surprise_upper_blur.jpg,s,90,0,15,f,0,0.48630260000936687,None,15,0,90,4,198.18643519992474,,,,,,,,,,,,,,,,198.18095880001783,198.18643519992474,199.6814616000047,199.6814616000047,199.6969584999606,200.18019300000742,200.18233720003627,f,0,0.48630260000936687,None,,A21,103,2025-04-01_12h27.27.000,416_EXPERIMENT_PSYCHOPY_AU2220019_AU2220225,2024.2.4,59.92566816540486,2025-04-01 12h27.39.787640 +0530,
surprise_lower_blur.jpg,s,91,1,15,s,1,0.5163502000505105,None,15,1,91,5,200.1990904000122,,,,,,,,,,,,,,,,200.19339279993437,200.1990904000122,201.6975524999434,201.6975524999434,201.71377349994145,202.19696880003903,202.21663169993553,s,1,0.5163502000505105,None,,A21,103,2025-04-01_12h27.27.000,416_EXPERIMENT_PSYCHOPY_AU2220019_AU2220225,2024.2.4,59.92566816540486,2025-04-01 12h27.39.787640 +0530,
fear_upper_blur.jpg,f,92,2,15,f,1,0.4310130000812933,None,15,2,92,2,202.2350592999719,,,,,,,,,,,,,,,,202.22948390000965,202.2350592999719,203.73030409996863,203.73030409996863,203.74711719993502,,204.1681465000147,f,1,0.4310130000812933,None,,A21,103,2025-04-01_12h27.27.000,416_EXPERIMENT_PSYCHOPY_AU2220019_AU2220225,2024.2.4,59.92566816540486,2025-04-01 12h27.39.787640 +0530,
fear_lower_blur.jpg,f,93,3,15,f,1,0.4060221000108868,None,15,3,93,3,204.18682099995203,,,,,,,,,,,,,,,,204.18147509999108,204.18682099995203,205.6807381999679,205.6807381999679,205.6973050000379,,206.0991433999734,f,1,0.4060221000108868,None,,A21,103,2025-04-01_12h27.27.000,416_EXPERIMENT_PSYCHOPY_AU2220019_AU2220225,2024.2.4,59.92566816540486,2025-04-01 12h27.39.787640 +0530,
surprise.jpg,s,94,4,15,s,1,0.5048099999548867,None,15,4,94,1,206.11833369999658,,,,,,,,,,,,,,,,206.11298380000517,206.11833369999658,207.61240059998818,207.61240059998818,207.62905879993923,208.1117312000133,208.12960680003744,s,1,0.5048099999548867,None,,A21,103,2025-04-01_12h27.27.000,416_EXPERIMENT_PSYCHOPY_AU2220019_AU2220225,2024.2.4,59.92566816540486,2025-04-01 12h27.39.787640 +0530,
fear.jpg,f,95,5,15,f,1,0.33206719998270273,None,15,5,95,0,208.14888729993254,,,,,,,,,,,,,,,,208.14275929995347,208.14888729993254,209.63056590000633,209.63056590000633,209.6618465000065,,209.97978219995275,f,1,0.33206719998270273,None,,A21,103,2025-04-01_12h27.27.000,416_EXPERIMENT_PSYCHOPY_AU2220019_AU2220225,2024.2.4,59.92566816540486,2025-04-01 12h27.39.787640 +0530,
surprise_lower_blur.jpg,s,96,0,16,s,1,0.4497728000860661,None,16,0,96,5,209.997506899992,,,,,,,,,,,,,,,,209.99205460003577,209.997506899992,211.4801336999517,211.4801336999517,211.49484870000742,,211.93367830000352,s,1,0.4497728000860661,None,,A21,103,2025-04-01_12h27.27.000,416_EXPERIMENT_PSYCHOPY_AU2220019_AU2220225,2024.2.4,59.92566816540486,2025-04-01 12h27.39.787640 +0530,
fear_lower_blur.jpg,f,97,1,16,f,1,0.37865400000009686,None,16,1,97,3,211.9520725000184,,,,,,,,,,,,,,,,211.94684580003377,211.9520725000184,213.4451406999724,213.4451406999724,213.46420659997966,,213.8330219000345,f,1,0.37865400000009686,None,,A21,103,2025-04-01_12h27.27.000,416_EXPERIMENT_PSYCHOPY_AU2220019_AU2220225,2024.2.4,59.92566816540486,2025-04-01 12h27.39.787640 +0530,
surprise.jpg,s,98,2,16,s,1,0.5078768999082968,None,16,2,98,1,213.85254679992795,,,,,,,,,,,,,,,,213.8470463999547,213.85254679992795,215.34708410000894,215.34708410000894,215.3639480000129,215.84699919994455,215.86602049996145,s,1,0.5078768999082968,None,,A21,103,2025-04-01_12h27.27.000,416_EXPERIMENT_PSYCHOPY_AU2220019_AU2220225,2024.2.4,59.92566816540486,2025-04-01 12h27.39.787640 +0530,
fear.jpg,f,99,3,16,f,1,0.5645317999878898,None,16,3,99,0,215.88416649994906,,,,,,,,,,,,,,,,215.8798783000093,215.88416649994906,217.37910060002469,217.37910060002469,217.39575509994756,217.8802109999815,217.94871589995455,f,1,0.5645317999878898,None,,A21,103,2025-04-01_12h27.27.000,416_EXPERIMENT_PSYCHOPY_AU2220019_AU2220225,2024.2.4,59.92566816540486,2025-04-01 12h27.39.787640 +0530,
surprise_upper_blur.jpg,s,100,4,16,s,1,0.4631876000203192,None,16,4,100,4,217.96744189993478,,,,,,,,,,,,,,,,217.96216629992705,217.96744189993478,219.46168559999205,219.46168559999205,219.4785432999488,,219.93010909995064,s,1,0.4631876000203192,None,,A21,103,2025-04-01_12h27.27.000,416_EXPERIMENT_PSYCHOPY_AU2220019_AU2220225,2024.2.4,59.92566816540486,2025-04-01 12h27.39.787640 +0530,
fear_upper_blur.jpg,f,101,5,16,s,0,0.49073379999026656,None,16,5,101,2,219.94755079993047,,,,,,,,,,,,,,,,219.9412466000067,219.94755079993047,221.44498040003236,221.44498040003236,221.46165239997208,221.94716019998305,221.94932180002797,s,0,0.49073379999026656,None,,A21,103,2025-04-01_12h27.27.000,416_EXPERIMENT_PSYCHOPY_AU2220019_AU2220225,2024.2.4,59.92566816540486,2025-04-01 12h27.39.787640 +0530,
surprise.jpg,s,102,0,17,s,1,0.5026357000460848,None,17,0,102,1,221.96943049994297,,,,,,,,,,,,,,,,221.96337040001526,221.96943049994297,223.4638788999291,223.4638788999291,223.47840110003017,223.96383319993038,223.9830686999485,s,1,0.5026357000460848,None,,A21,103,2025-04-01_12h27.27.000,416_EXPERIMENT_PSYCHOPY_AU2220019_AU2220225,2024.2.4,59.92566816540486,2025-04-01 12h27.39.787640 +0530,
surprise_lower_blur.jpg,s,103,1,17,s,1,0.4408062999136746,None,17,1,103,5,224.0026971999323,,,,,,,,,,,,,,,,223.99729209998623,224.0026971999323,225.49677930003963,225.49677930003963,225.5136185999727,,225.94999989995267,s,1,0.4408062999136746,None,,A21,103,2025-04-01_12h27.27.000,416_EXPERIMENT_PSYCHOPY_AU2220019_AU2220225,2024.2.4,59.92566816540486,2025-04-01 12h27.39.787640 +0530,
surprise_upper_blur.jpg,s,104,2,17,s,1,0.45977870002388954,None,17,2,104,4,225.9675054999534,,,,,,,,,,,,,,,,225.9626208000118,225.9675054999534,227.46395999996457,227.46395999996457,227.48044139996637,,227.9328680000035,s,1,0.45977870002388954,None,,A21,103,2025-04-01_12h27.27.000,416_EXPERIMENT_PSYCHOPY_AU2220019_AU2220225,2024.2.4,59.92566816540486,2025-04-01 12h27.39.787640 +0530,
fear_lower_blur.jpg,f,105,3,17,f,1,0.30205639998894185,None,17,3,105,3,227.95119609998073,,,,,,,,,,,,,,,,227.9460949000204,227.95119609998073,229.44690670003183,229.44690670003183,229.46362629998475,,229.76679170003626,f,1,0.30205639998894185,None,,A21,103,2025-04-01_12h27.27.000,416_EXPERIMENT_PSYCHOPY_AU2220019_AU2220225,2024.2.4,59.92566816540486,2025-04-01 12h27.39.787640 +0530,
fear.jpg,f,106,4,17,f,1,0.33781340008135885,None,17,4,106,0,229.78677320003044,,,,,,,,,,,,,,,,229.7811918000225,229.78677320003044,231.27831520000473,231.27831520000473,231.29749180004,,231.62990759999957,f,1,0.33781340008135885,None,,A21,103,2025-04-01_12h27.27.000,416_EXPERIMENT_PSYCHOPY_AU2220019_AU2220225,2024.2.4,59.92566816540486,2025-04-01 12h27.39.787640 +0530,
fear_upper_blur.jpg,f,107,5,17,f,1,0.34613680001348257,None,17,5,107,2,231.64766499993857,,,,,,,,,,,,,,,,231.6398336000275,231.64766499993857,233.13029709993862,233.13029709993862,233.14696009992622,,233.48256869998295,f,1,0.34613680001348257,None,,A21,103,2025-04-01_12h27.27.000,416_EXPERIMENT_PSYCHOPY_AU2220019_AU2220225,2024.2.4,59.92566816540486,2025-04-01 12h27.39.787640 +0530,
fear_upper_blur.jpg,f,108,0,18,f,1,0.39001299999654293,None,18,0,108,2,233.50096099998336,,,,,,,,,,,,,,,,233.4956975999521,233.50096099998336,234.99754559993744,234.99754559993744,235.0138296999503,,235.39927529997658,f,1,0.39001299999654293,None,,A21,103,2025-04-01_12h27.27.000,416_EXPERIMENT_PSYCHOPY_AU2220019_AU2220225,2024.2.4,59.92566816540486,2025-04-01 12h27.39.787640 +0530,
fear.jpg,f,109,1,18,f,1,0.37390200002118945,None,18,1,109,0,235.41800059995148,,,,,,,,,,,,,,,,235.41254930000287,235.41800059995148,236.91260179993697,236.91260179993697,236.92911659996025,,237.2977437999798,f,1,0.37390200002118945,None,,A21,103,2025-04-01_12h27.27.000,416_EXPERIMENT_PSYCHOPY_AU2220019_AU2220225,2024.2.4,59.92566816540486,2025-04-01 12h27.39.787640 +0530,
surprise.jpg,s,110,2,18,s,1,0.4983125999569893,None,18,2,110,1,237.31383899995126,,,,,,,,,,,,,,,,237.30784579995088,237.31383899995126,238.81163380004,238.81163380004,238.82839659997262,239.31406539992895,239.3163224000018,s,1,0.4983125999569893,None,,A21,103,2025-04-01_12h27.27.000,416_EXPERIMENT_PSYCHOPY_AU2220019_AU2220225,2024.2.4,59.92566816540486,2025-04-01 12h27.39.787640 +0530,
fear_lower_blur.jpg,f,111,3,18,f,1,0.4972131000831723,None,18,3,111,3,239.33558610000182,,,,,,,,,,,,,,,,239.33001879998483,239.33558610000182,240.82943329995032,240.82943329995032,240.84646569995675,241.33017909992486,241.33326839993242,f,1,0.4972131000831723,None,,A21,103,2025-04-01_12h27.27.000,416_EXPERIMENT_PSYCHOPY_AU2220019_AU2220225,2024.2.4,59.92566816540486,2025-04-01 12h27.39.787640 +0530,
surprise_lower_blur.jpg,s,112,4,18,f,0,0.514142100000754,None,18,4,112,5,241.34896069997922,,,,,,,,,,,,,,,,241.34362079994753,241.34896069997922,242.84698499995284,242.84698499995284,242.8640972999856,243.34751490002964,243.36693669995293,f,0,0.514142100000754,None,,A21,103,2025-04-01_12h27.27.000,416_EXPERIMENT_PSYCHOPY_AU2220019_AU2220225,2024.2.4,59.92566816540486,2025-04-01 12h27.39.787640 +0530,
surprise_upper_blur.jpg,s,113,5,18,s,1,0.5244353000307456,None,18,5,113,4,243.38606819999404,,,,,,,,,,,,,,,,243.3807022999972,243.38606819999404,244.88078370003495,244.88078370003495,244.89716779999435,245.39775539992843,245.41591229999904,s,1,0.5244353000307456,None,,A21,103,2025-04-01_12h27.27.000,416_EXPERIMENT_PSYCHOPY_AU2220019_AU2220225,2024.2.4,59.92566816540486,2025-04-01 12h27.39.787640 +0530,
surprise.jpg,s,114,0,19,f,0,0.5689372000051662,None,19,0,114,1,245.43611509993207,,,,,,,,,,,,,,,,245.430128899985,245.43611509993207,246.93055489996914,246.93055489996914,246.94727739994414,247.4302902999334,247.51566649996676,f,0,0.5689372000051662,None,,A21,103,2025-04-01_12h27.27.000,416_EXPERIMENT_PSYCHOPY_AU2220019_AU2220225,2024.2.4,59.92566816540486,2025-04-01 12h27.39.787640 +0530,
fear_lower_blur.jpg,f,115,1,19,f,1,0.5621123999590054,None,19,1,115,3,247.534238299937,,,,,,,,,,,,,,,,247.52893159992527,247.534238299937,249.03080329997465,249.03080329997465,249.04731489997357,249.5309923000168,249.59952339995652,f,1,0.5621123999590054,None,,A21,103,2025-04-01_12h27.27.000,416_EXPERIMENT_PSYCHOPY_AU2220019_AU2220225,2024.2.4,59.92566816540486,2025-04-01 12h27.39.787640 +0530,
fear.jpg,f,116,2,19,s,0,0.4819009000202641,None,19,2,116,0,249.61882840003818,,,,,,,,,,,,,,,,249.61318049998954,249.61882840003818,251.11367510003038,251.11367510003038,251.1304617000278,251.61720029998105,251.59886609995738,s,0,0.4819009000202641,None,,A21,103,2025-04-01_12h27.27.000,416_EXPERIMENT_PSYCHOPY_AU2220019_AU2220225,2024.2.4,59.92566816540486,2025-04-01 12h27.39.787640 +0530,
fear_upper_blur.jpg,f,117,3,19,s,0,0.48754210001789033,None,19,3,117,2,251.61720029998105,,,,,,,,,,,,,,,,251.61186229996383,251.61720029998105,253.11294070002623,253.11294070002623,253.1278468000237,253.61203900002874,253.61470389994793,s,0,0.48754210001789033,None,,A21,103,2025-04-01_12h27.27.000,416_EXPERIMENT_PSYCHOPY_AU2220019_AU2220225,2024.2.4,59.92566816540486,2025-04-01 12h27.39.787640 +0530,
surprise_lower_blur.jpg,s,118,4,19,s,1,0.5490110999671742,None,19,4,118,5,253.63081040000543,,,,,,,,,,,,,,,,253.62460789992474,253.63081040000543,255.13044859992806,255.13044859992806,255.13044859992806,255.6304920000257,255.68316559994128,s,1,0.5490110999671742,None,,A21,103,2025-04-01_12h27.27.000,416_EXPERIMENT_PSYCHOPY_AU2220019_AU2220225,2024.2.4,59.92566816540486,2025-04-01 12h27.39.787640 +0530,
surprise_upper_blur.jpg,s,119,5,19,s,1,0.5068749999627471,None,19,5,119,4,255.70129120000638,,,,,,,,,,,,,,,,255.69599859998561,255.70129120000638,257.19718759995885,257.19718759995885,257.2140814999584,257.71289770002477,257.71467030001804,s,1,0.5068749999627471,None,,A21,103,2025-04-01_12h27.27.000,416_EXPERIMENT_PSYCHOPY_AU2220019_AU2220225,2024.2.4,59.92566816540486,2025-04-01 12h27.39.787640 +0530,
