stimulus_image,correct_response,thisN,thisTrialN,thisRepN,key_resp.keys,key_resp.corr,key_resp.rt,key_resp.duration,loop.thisRepN,loop.thisTrialN,loop.thisN,loop.thisIndex,thisRow.t,notes,guide.started,instructions.started,ins_resp.started,guide.stopped,ins_resp.keys,ins_resp.rt,ins_resp.duration,guide_2.started,text.started,key_resp_2.started,guide_2.stopped,key_resp_2.keys,key_resp_2.rt,key_resp_2.duration,trial.started,fixation.started,image.started,key_resp.started,fixation.stopped,image.stopped,trial.stopped,loop.key_resp.keys,loop.key_resp.corr,loop.key_resp.rt,loop.key_resp.duration,key_resp.stopped,participant,session,date,expName,psychopyVersion,frameRate,expStart,
,,,,,,,,,,,,,,,0.004632700001820922,0.02212439989671111,0.02212439989671111,49.316058199852705,space,49.27765730000101,None,,,,,,,,,,,,,,,,,,,,AN23,107,2025-04-01_15h18.38.845,416_EXPERIMENT_PSYCHOPY_AU2220019_AU2220225,2024.2.4,60.403799422007324,2025-04-01 15h26.02.679317 +0530,
,,,,,,,,,,,,,,,,,,,,,,49.31614759983495,49.32401889981702,49.32401889981702,53.89263299992308,space,4.551460799993947,None,,,,,,,,,,,,,AN23,107,2025-04-01_15h18.38.845,416_EXPERIMENT_PSYCHOPY_AU2220019_AU2220225,2024.2.4,60.403799422007324,2025-04-01 15h26.02.679317 +0530,
surprise_upper_blur.jpg,s,0,0,0,None,0,,,0,0,0,4,53.9991859998554,,,,,,,,,,,,,,,,53.992869599955156,53.9991859998554,55.4210260999389,55.4210260999389,55.5062784999609,55.922859699930996,56.15597969992086,None,0,,,,AN23,107,2025-04-01_15h18.38.845,416_EXPERIMENT_PSYCHOPY_AU2220019_AU2220225,2024.2.4,60.403799422007324,2025-04-01 15h26.02.679317 +0530,
fear.jpg,f,1,1,0,f,1,0.6190883999224752,None,0,1,1,0,56.17319489992224,,,,,,,,,,,,,,,,56.16812209994532,56.17319489992224,57.65575209981762,57.65575209981762,57.672236499842256,58.15629299986176,58.29241179977544,f,1,0.6190883999224752,None,,AN23,107,2025-04-01_15h18.38.845,416_EXPERIMENT_PSYCHOPY_AU2220019_AU2220225,2024.2.4,60.403799422007324,2025-04-01 15h26.02.679317 +0530,
surprise_lower_blur.jpg,s,2,2,0,s,1,0.5093936000484973,None,0,2,2,5,58.307090799789876,,,,,,,,,,,,,,,,58.30203119991347,58.307090799789876,59.807795899920166,59.807795899920166,59.807795899920166,60.30736369988881,60.32631279993802,s,1,0.5093936000484973,None,,AN23,107,2025-04-01_15h18.38.845,416_EXPERIMENT_PSYCHOPY_AU2220019_AU2220225,2024.2.4,60.403799422007324,2025-04-01 15h26.02.679317 +0530,
fear_upper_blur.jpg,f,3,3,0,f,1,0.3669070000760257,None,0,3,3,2,60.346369199920446,,,,,,,,,,,,,,,,60.34040919994004,60.346369199920446,61.838734899880365,61.838734899880365,61.855523499893025,,62.20894099981524,f,1,0.3669070000760257,None,,AN23,107,2025-04-01_15h18.38.845,416_EXPERIMENT_PSYCHOPY_AU2220019_AU2220225,2024.2.4,60.403799422007324,2025-04-01 15h26.02.679317 +0530,
fear_lower_blur.jpg,f,4,4,0,s,0,0.2970692999660969,None,0,4,4,3,62.22912729997188,,,,,,,,,,,,,,,,62.22265569982119,62.22912729997188,63.72241529985331,63.72241529985331,63.73853069986217,,64.02609199983999,s,0,0.2970692999660969,None,,AN23,107,2025-04-01_15h18.38.845,416_EXPERIMENT_PSYCHOPY_AU2220019_AU2220225,2024.2.4,60.403799422007324,2025-04-01 15h26.02.679317 +0530,
surprise.jpg,s,5,5,0,f,0,0.3657472000923008,None,0,5,5,1,64.0458107998129,,,,,,,,,,,,,,,,64.04016309999861,64.0458107998129,65.53892359999008,65.53892359999008,65.55762439989485,,65.90966569981538,f,0,0.3657472000923008,None,,AN23,107,2025-04-01_15h18.38.845,416_EXPERIMENT_PSYCHOPY_AU2220019_AU2220225,2024.2.4,60.403799422007324,2025-04-01 15h26.02.679317 +0530,
surprise_lower_blur.jpg,s,6,0,1,s,1,0.6392737000714988,None,1,0,6,5,65.92867369996384,,,,,,,,,,,,,,,,65.92278349981643,65.92867369996384,67.42432399978861,67.42432399978861,67.44069359987043,67.92243979987688,68.0766147999093,s,1,0.6392737000714988,None,,AN23,107,2025-04-01_15h18.38.845,416_EXPERIMENT_PSYCHOPY_AU2220019_AU2220225,2024.2.4,60.403799422007324,2025-04-01 15h26.02.679317 +0530,
fear.jpg,f,7,1,1,None,0,,,1,1,7,0,68.09586739982478,,,,,,,,,,,,,,,,68.09016089979559,68.09586739982478,69.59094399982132,69.59094399982132,69.60747969988734,70.09118279977702,70.32599709997885,None,0,,,70.34170939982869,AN23,107,2025-04-01_15h18.38.845,416_EXPERIMENT_PSYCHOPY_AU2220019_AU2220225,2024.2.4,60.403799422007324,2025-04-01 15h26.02.679317 +0530,
surprise.jpg,s,8,2,1,None,0,,,1,2,8,1,70.34170939982869,,,,,,,,,,,,,,,,70.33716869982891,70.34170939982869,71.84095119987614,71.84095119987614,71.84095119987614,72.3576559999492,72.5753435997758,None,0,,,72.59423079993576,AN23,107,2025-04-01_15h18.38.845,416_EXPERIMENT_PSYCHOPY_AU2220019_AU2220225,2024.2.4,60.403799422007324,2025-04-01 15h26.02.679317 +0530,
surprise_upper_blur.jpg,s,9,3,1,None,0,,,1,3,9,4,72.59423079993576,,,,,,,,,,,,,,,,72.5890571998898,72.59423079993576,74.09083959995769,74.09083959995769,74.10715599986725,74.59054789994843,74.82568879984319,None,0,,,74.84286989993416,AN23,107,2025-04-01_15h18.38.845,416_EXPERIMENT_PSYCHOPY_AU2220019_AU2220225,2024.2.4,60.403799422007324,2025-04-01 15h26.02.679317 +0530,
fear_lower_blur.jpg,f,10,4,1,None,0,,,1,4,10,3,74.84286989993416,,,,,,,,,,,,,,,,74.83886629994959,74.84286989993416,76.34117899998091,76.34117899998091,76.35747739998624,76.8405437998008,77.07630389998667,None,0,,,77.09634789987467,AN23,107,2025-04-01_15h18.38.845,416_EXPERIMENT_PSYCHOPY_AU2220019_AU2220225,2024.2.4,60.403799422007324,2025-04-01 15h26.02.679317 +0530,
fear_upper_blur.jpg,f,11,5,1,f,1,0.4566243998706341,None,1,5,11,2,77.09634789987467,,,,,,,,,,,,,,,,77.08965159999207,77.09634789987467,78.59089369978756,78.59089369978756,78.60761019983329,,79.0598275999073,f,1,0.4566243998706341,None,,AN23,107,2025-04-01_15h18.38.845,416_EXPERIMENT_PSYCHOPY_AU2220019_AU2220225,2024.2.4,60.403799422007324,2025-04-01 15h26.02.679317 +0530,
fear_upper_blur.jpg,f,12,0,2,f,1,0.3924760001245886,None,2,0,12,2,79.0793287998531,,,,,,,,,,,,,,,,79.073223099811,79.0793287998531,80.57159759989008,80.57159759989008,80.5892876998987,,80.97709699999541,f,1,0.3924760001245886,None,,AN23,107,2025-04-01_15h18.38.845,416_EXPERIMENT_PSYCHOPY_AU2220019_AU2220225,2024.2.4,60.403799422007324,2025-04-01 15h26.02.679317 +0530,
fear_lower_blur.jpg,f,13,1,2,f,1,0.5773810998070985,None,2,1,13,3,80.99631359986961,,,,,,,,,,,,,,,,80.9906653999351,80.99631359986961,82.49093219987117,82.49093219987117,82.50739139993675,83.00584979983978,83.07342159980908,f,1,0.5773810998070985,None,,AN23,107,2025-04-01_15h18.38.845,416_EXPERIMENT_PSYCHOPY_AU2220019_AU2220225,2024.2.4,60.403799422007324,2025-04-01 15h26.02.679317 +0530,
surprise_lower_blur.jpg,s,14,2,2,s,1,0.5654073001351207,None,2,2,14,5,83.09248549980111,,,,,,,,,,,,,,,,83.0862522998359,83.09248549980111,84.57422989979386,84.57422989979386,84.60741759999655,85.07386859995313,85.15683599980548,s,1,0.5654073001351207,None,,AN23,107,2025-04-01_15h18.38.845,416_EXPERIMENT_PSYCHOPY_AU2220019_AU2220225,2024.2.4,60.403799422007324,2025-04-01 15h26.02.679317 +0530,
surprise_upper_blur.jpg,s,15,3,2,s,1,0.5790383999701589,None,2,3,15,4,85.17315309983678,,,,,,,,,,,,,,,,85.16674759984016,85.17315309983678,86.65785189997405,86.65785189997405,86.67318569985218,87.15808129985817,87.24321749992669,s,1,0.5790383999701589,None,,AN23,107,2025-04-01_15h18.38.845,416_EXPERIMENT_PSYCHOPY_AU2220019_AU2220225,2024.2.4,60.403799422007324,2025-04-01 15h26.02.679317 +0530,
fear.jpg,f,16,4,2,f,1,0.5929745999164879,None,2,4,16,0,87.26276189996861,,,,,,,,,,,,,,,,87.25738009996712,87.26276189996861,88.7553832998965,88.7553832998965,88.77200029999949,89.25769449979998,89.35900259995833,f,1,0.5929745999164879,None,,AN23,107,2025-04-01_15h18.38.845,416_EXPERIMENT_PSYCHOPY_AU2220019_AU2220225,2024.2.4,60.403799422007324,2025-04-01 15h26.02.679317 +0530,
surprise.jpg,s,17,5,2,s,1,0.5583367999643087,None,2,5,17,1,89.37847449979745,,,,,,,,,,,,,,,,89.37331919977441,89.37847449979745,90.87432449986227,90.87432449986227,90.89098619995639,91.37411089986563,91.4432004999835,s,1,0.5583367999643087,None,,AN23,107,2025-04-01_15h18.38.845,416_EXPERIMENT_PSYCHOPY_AU2220019_AU2220225,2024.2.4,60.403799422007324,2025-04-01 15h26.02.679317 +0530,
surprise_upper_blur.jpg,s,18,0,3,None,0,,,3,0,18,4,91.46250019990839,,,,,,,,,,,,,,,,91.45724839996547,91.46250019990839,92.95529499999247,92.95529499999247,92.97202499979176,93.4571043998003,93.6927378999535,None,0,,,93.71162309986539,AN23,107,2025-04-01_15h18.38.845,416_EXPERIMENT_PSYCHOPY_AU2220019_AU2220225,2024.2.4,60.403799422007324,2025-04-01 15h26.02.679317 +0530,
surprise_lower_blur.jpg,s,19,1,3,None,0,,,3,1,19,5,93.71162309986539,,,,,,,,,,,,,,,,93.70671289996244,93.71162309986539,95.20730349980295,95.20730349980295,95.22375409980305,95.70713639981113,95.95542419981211,None,0,,,,AN23,107,2025-04-01_15h18.38.845,416_EXPERIMENT_PSYCHOPY_AU2220019_AU2220225,2024.2.4,60.403799422007324,2025-04-01 15h26.02.679317 +0530,
fear_upper_blur.jpg,f,20,2,3,f,1,0.5536658999044448,None,3,2,20,2,95.97326079988852,,,,,,,,,,,,,,,,95.9681323999539,95.97326079988852,97.45690939994529,97.45690939994529,97.47350570000708,97.95693729980849,98.02387329982594,f,1,0.5536658999044448,None,,AN23,107,2025-04-01_15h18.38.845,416_EXPERIMENT_PSYCHOPY_AU2220019_AU2220225,2024.2.4,60.403799422007324,2025-04-01 15h26.02.679317 +0530,
fear.jpg,f,21,3,3,f,1,0.6197921999264508,None,3,3,21,0,98.0405161997769,,,,,,,,,,,,,,,,98.03471179981716,98.0405161997769,99.52412249986082,99.52412249986082,99.5408134998288,100.02461259998381,100.1592079999391,f,1,0.6197921999264508,None,,AN23,107,2025-04-01_15h18.38.845,416_EXPERIMENT_PSYCHOPY_AU2220019_AU2220225,2024.2.4,60.403799422007324,2025-04-01 15h26.02.679317 +0530,
surprise.jpg,s,22,4,3,None,0,,,3,4,22,1,100.17856359994039,,,,,,,,,,,,,,,,100.17308999993838,100.17856359994039,101.6739227999933,101.6739227999933,101.69119339995086,102.17402679985389,102.40785479987971,None,0,,,102.4257304999046,AN23,107,2025-04-01_15h18.38.845,416_EXPERIMENT_PSYCHOPY_AU2220019_AU2220225,2024.2.4,60.403799422007324,2025-04-01 15h26.02.679317 +0530,
fear_lower_blur.jpg,f,23,5,3,None,0,,,3,5,23,3,102.4257304999046,,,,,,,,,,,,,,,,102.41999089997262,102.4257304999046,103.92370149982162,103.92370149982162,103.94102449994534,104.42412849981338,104.65850339992903,None,0,,,104.67795149981976,AN23,107,2025-04-01_15h18.38.845,416_EXPERIMENT_PSYCHOPY_AU2220019_AU2220225,2024.2.4,60.403799422007324,2025-04-01 15h26.02.679317 +0530,
surprise.jpg,s,24,0,4,None,0,,,4,0,24,1,104.67795149981976,,,,,,,,,,,,,,,,104.67265309998766,104.67795149981976,106.17303659999743,106.17303659999743,106.18845089990646,106.67225899989717,106.90808649989776,None,0,,,106.92401069984771,AN23,107,2025-04-01_15h18.38.845,416_EXPERIMENT_PSYCHOPY_AU2220019_AU2220225,2024.2.4,60.403799422007324,2025-04-01 15h26.02.679317 +0530,
fear.jpg,f,25,1,4,None,0,,,4,1,25,0,106.92401069984771,,,,,,,,,,,,,,,,106.9188488998916,106.92401069984771,108.42413379997015,108.42413379997015,108.42413379997015,108.92374599981122,109.15824089990929,None,0,,,109.17454369994812,AN23,107,2025-04-01_15h18.38.845,416_EXPERIMENT_PSYCHOPY_AU2220019_AU2220225,2024.2.4,60.403799422007324,2025-04-01 15h26.02.679317 +0530,
fear_lower_blur.jpg,f,26,2,4,None,0,,,4,2,26,3,109.17454369994812,,,,,,,,,,,,,,,,109.16861469997093,109.17454369994812,110.67395480000414,110.67395480000414,110.67395480000414,111.17469969997182,111.40846269996837,None,0,,,111.42684599990025,AN23,107,2025-04-01_15h18.38.845,416_EXPERIMENT_PSYCHOPY_AU2220019_AU2220225,2024.2.4,60.403799422007324,2025-04-01 15h26.02.679317 +0530,
fear_upper_blur.jpg,f,27,3,4,None,0,,,4,3,27,2,111.42684599990025,,,,,,,,,,,,,,,,111.42203509993851,111.42684599990025,112.92394869984128,112.92394869984128,112.9409984999802,113.42436429997906,113.65831599989906,None,0,,,113.67581119993702,AN23,107,2025-04-01_15h18.38.845,416_EXPERIMENT_PSYCHOPY_AU2220019_AU2220225,2024.2.4,60.403799422007324,2025-04-01 15h26.02.679317 +0530,
surprise_upper_blur.jpg,s,28,4,4,None,0,,,4,4,28,4,113.67581119993702,,,,,,,,,,,,,,,,113.67132199998014,113.67581119993702,115.17260989989154,115.17260989989154,115.18955999985337,115.67409289977513,115.90847969986498,None,0,,,115.92703009978868,AN23,107,2025-04-01_15h18.38.845,416_EXPERIMENT_PSYCHOPY_AU2220019_AU2220225,2024.2.4,60.403799422007324,2025-04-01 15h26.02.679317 +0530,
surprise_lower_blur.jpg,s,29,5,4,None,0,,,4,5,29,5,115.92703009978868,,,,,,,,,,,,,,,,115.92214499996044,115.92703009978868,117.42302299989387,117.42302299989387,117.43920329981484,117.92388039990328,118.15885099978186,None,0,,,118.17807939997874,AN23,107,2025-04-01_15h18.38.845,416_EXPERIMENT_PSYCHOPY_AU2220019_AU2220225,2024.2.4,60.403799422007324,2025-04-01 15h26.02.679317 +0530,
fear.jpg,f,30,0,5,None,0,,,5,0,30,0,118.17807939997874,,,,,,,,,,,,,,,,118.17335389996879,118.17807939997874,119.67462720000185,119.67462720000185,119.69075690000318,120.19090269994922,120.42448829999194,None,0,,,,AN23,107,2025-04-01_15h18.38.845,416_EXPERIMENT_PSYCHOPY_AU2220019_AU2220225,2024.2.4,60.403799422007324,2025-04-01 15h26.02.679317 +0530,
fear_lower_blur.jpg,f,31,1,5,None,0,,,5,1,31,3,120.44248959980905,,,,,,,,,,,,,,,,120.43730389978737,120.44248959980905,121.92449109978043,121.92449109978043,121.95753489993513,122.42375299986452,122.65897079999559,None,0,,,122.6780600999482,AN23,107,2025-04-01_15h18.38.845,416_EXPERIMENT_PSYCHOPY_AU2220019_AU2220225,2024.2.4,60.403799422007324,2025-04-01 15h26.02.679317 +0530,
surprise_lower_blur.jpg,s,32,2,5,s,1,0.575005599996075,None,5,2,32,5,122.6780600999482,,,,,,,,,,,,,,,,122.67255529994145,122.6780600999482,124.17185179982334,124.17185179982334,124.1905769999139,124.674477199791,124.75933349994011,s,1,0.575005599996075,None,,AN23,107,2025-04-01_15h18.38.845,416_EXPERIMENT_PSYCHOPY_AU2220019_AU2220225,2024.2.4,60.403799422007324,2025-04-01 15h26.02.679317 +0530,
surprise_upper_blur.jpg,s,33,3,5,None,0,,,5,3,33,4,124.77806539996527,,,,,,,,,,,,,,,,124.77257259981707,124.77806539996527,126.27439499995671,126.27439499995671,126.29125489993021,126.78888569981791,127.00898939999752,None,0,,,127.0267573997844,AN23,107,2025-04-01_15h18.38.845,416_EXPERIMENT_PSYCHOPY_AU2220019_AU2220225,2024.2.4,60.403799422007324,2025-04-01 15h26.02.679317 +0530,
fear_upper_blur.jpg,f,34,4,5,f,1,0.6354121000040323,None,5,4,34,2,127.0267573997844,,,,,,,,,,,,,,,,127.02177259977907,127.0267573997844,128.52433339995332,128.52433339995332,128.54096259991638,129.02178979991004,129.17627299996093,f,1,0.6354121000040323,None,,AN23,107,2025-04-01_15h18.38.845,416_EXPERIMENT_PSYCHOPY_AU2220019_AU2220225,2024.2.4,60.403799422007324,2025-04-01 15h26.02.679317 +0530,
surprise.jpg,s,35,5,5,None,0,,,5,5,35,1,129.19634779985063,,,,,,,,,,,,,,,,129.19050239981152,129.19634779985063,130.69059489993379,130.69059489993379,130.70787449995987,131.1907140999101,131.42580589978024,None,0,,,131.44459329987876,AN23,107,2025-04-01_15h18.38.845,416_EXPERIMENT_PSYCHOPY_AU2220019_AU2220225,2024.2.4,60.403799422007324,2025-04-01 15h26.02.679317 +0530,
fear_upper_blur.jpg,f,36,0,6,f,1,0.5799252998549491,None,6,0,36,2,131.44459329987876,,,,,,,,,,,,,,,,131.4388186999131,131.44459329987876,132.93857639981434,132.93857639981434,132.9562334998045,133.4402077998966,133.52616979996674,f,1,0.5799252998549491,None,,AN23,107,2025-04-01_15h18.38.845,416_EXPERIMENT_PSYCHOPY_AU2220019_AU2220225,2024.2.4,60.403799422007324,2025-04-01 15h26.02.679317 +0530,
surprise_upper_blur.jpg,s,37,1,6,s,1,0.7043603998608887,None,6,1,37,4,133.54307099990547,,,,,,,,,,,,,,,,133.53674239991233,133.54307099990547,135.04014249984175,135.04014249984175,135.05653879977763,135.54009189992212,135.75763639993966,s,1,0.7043603998608887,None,,AN23,107,2025-04-01_15h18.38.845,416_EXPERIMENT_PSYCHOPY_AU2220019_AU2220225,2024.2.4,60.403799422007324,2025-04-01 15h26.02.679317 +0530,
fear.jpg,f,38,2,6,f,1,0.7068321001715958,None,6,2,38,0,135.7740417998284,,,,,,,,,,,,,,,,135.76909119985066,135.7740417998284,137.27421669987962,137.27421669987962,137.27421669987962,137.79042859980837,137.9934060999658,f,1,0.7068321001715958,None,,AN23,107,2025-04-01_15h18.38.845,416_EXPERIMENT_PSYCHOPY_AU2220019_AU2220225,2024.2.4,60.403799422007324,2025-04-01 15h26.02.679317 +0530,
surprise.jpg,s,39,3,6,s,1,0.42278030002489686,None,6,3,39,1,138.01340179983526,,,,,,,,,,,,,,,,138.00751109980047,138.01340179983526,139.50798019999638,139.50798019999638,139.5247315999586,,139.94437669985928,s,1,0.42278030002489686,None,,AN23,107,2025-04-01_15h18.38.845,416_EXPERIMENT_PSYCHOPY_AU2220019_AU2220225,2024.2.4,60.403799422007324,2025-04-01 15h26.02.679317 +0530,
fear_lower_blur.jpg,f,40,4,6,None,0,,,6,4,40,3,139.9632164000068,,,,,,,,,,,,,,,,139.9575840998441,139.9632164000068,141.45606519980356,141.45606519980356,141.4729925999418,141.9559665999841,142.19333049980924,None,0,,,142.2149131000042,AN23,107,2025-04-01_15h18.38.845,416_EXPERIMENT_PSYCHOPY_AU2220019_AU2220225,2024.2.4,60.403799422007324,2025-04-01 15h26.02.679317 +0530,
surprise_lower_blur.jpg,s,41,5,6,s,1,0.5132794000674039,None,6,5,41,5,142.2149131000042,,,,,,,,,,,,,,,,142.20874019991606,142.2149131000042,143.70726689998992,143.70726689998992,143.72400719998404,144.20771689992398,144.228420099942,s,1,0.5132794000674039,None,,AN23,107,2025-04-01_15h18.38.845,416_EXPERIMENT_PSYCHOPY_AU2220019_AU2220225,2024.2.4,60.403799422007324,2025-04-01 15h26.02.679317 +0530,
fear_lower_blur.jpg,f,42,0,7,f,1,0.7152628998737782,None,7,0,42,3,144.24779009982012,,,,,,,,,,,,,,,,144.2420851998031,144.24779009982012,145.74058769992553,145.74058769992553,145.75777539983392,146.24141189991497,146.4593842998147,f,1,0.7152628998737782,None,,AN23,107,2025-04-01_15h18.38.845,416_EXPERIMENT_PSYCHOPY_AU2220019_AU2220225,2024.2.4,60.403799422007324,2025-04-01 15h26.02.679317 +0530,
surprise.jpg,s,43,1,7,s,1,0.6755609000101686,None,7,1,43,1,146.48003699979745,,,,,,,,,,,,,,,,146.47452079993673,146.48003699979745,147.97487539984286,147.97487539984286,147.99146139994264,148.48848419985734,148.65912959980778,s,1,0.6755609000101686,None,,AN23,107,2025-04-01_15h18.38.845,416_EXPERIMENT_PSYCHOPY_AU2220019_AU2220225,2024.2.4,60.403799422007324,2025-04-01 15h26.02.679317 +0530,
surprise_lower_blur.jpg,s,44,2,7,None,0,,,7,2,44,5,148.6778543998953,,,,,,,,,,,,,,,,148.67221929994412,148.6778543998953,150.17534129996784,150.17534129996784,150.19149359990843,150.67476949980482,150.9102332999464,None,0,,,,AN23,107,2025-04-01_15h18.38.845,416_EXPERIMENT_PSYCHOPY_AU2220019_AU2220225,2024.2.4,60.403799422007324,2025-04-01 15h26.02.679317 +0530,
surprise_upper_blur.jpg,s,45,3,7,None,0,,,7,3,45,4,150.92894299980253,,,,,,,,,,,,,,,,150.9237185998354,150.92894299980253,152.42342309979722,152.42342309979722,152.4393896998372,152.92474879999645,153.15859459992498,None,0,,,153.17643819982186,AN23,107,2025-04-01_15h18.38.845,416_EXPERIMENT_PSYCHOPY_AU2220019_AU2220225,2024.2.4,60.403799422007324,2025-04-01 15h26.02.679317 +0530,
fear_upper_blur.jpg,f,46,4,7,None,0,,,7,4,46,2,153.17643819982186,,,,,,,,,,,,,,,,153.17167529999278,153.17643819982186,154.6747522999067,154.6747522999067,154.69106509978883,155.17450759978965,155.40995999984443,None,0,,,,AN23,107,2025-04-01_15h18.38.845,416_EXPERIMENT_PSYCHOPY_AU2220019_AU2220225,2024.2.4,60.403799422007324,2025-04-01 15h26.02.679317 +0530,
fear.jpg,f,47,5,7,None,0,,,7,5,47,0,155.43010779982433,,,,,,,,,,,,,,,,155.42421569977887,155.43010779982433,156.9250740997959,156.9250740997959,156.94125759997405,157.43948189984076,157.6750052999705,None,0,,,,AN23,107,2025-04-01_15h18.38.845,416_EXPERIMENT_PSYCHOPY_AU2220019_AU2220225,2024.2.4,60.403799422007324,2025-04-01 15h26.02.679317 +0530,
surprise_upper_blur.jpg,s,48,0,8,None,0,,,8,0,48,4,157.69249189994298,,,,,,,,,,,,,,,,157.68481789994985,157.69249189994298,159.1582506999839,159.1582506999839,159.19177379994653,159.6580094997771,159.89237329992466,None,0,,,159.9093817998655,AN23,107,2025-04-01_15h18.38.845,416_EXPERIMENT_PSYCHOPY_AU2220019_AU2220225,2024.2.4,60.403799422007324,2025-04-01 15h26.02.679317 +0530,
surprise_lower_blur.jpg,s,49,1,8,None,0,,,8,1,49,5,159.9093817998655,,,,,,,,,,,,,,,,159.9048572999891,159.92376529984176,161.4081259998493,161.4081259998493,161.42444349988364,161.92442769999616,162.1431715998333,None,0,,,162.16110019991174,AN23,107,2025-04-01_15h18.38.845,416_EXPERIMENT_PSYCHOPY_AU2220019_AU2220225,2024.2.4,60.403799422007324,2025-04-01 15h26.02.679317 +0530,
fear_upper_blur.jpg,f,50,2,8,None,0,,,8,2,50,2,162.16110019991174,,,,,,,,,,,,,,,,162.15606199996546,162.17339559993707,163.67490300000645,163.67490300000645,163.67490300000645,164.1892690998502,164.40918019996025,None,0,,,164.42836609994993,AN23,107,2025-04-01_15h18.38.845,416_EXPERIMENT_PSYCHOPY_AU2220019_AU2220225,2024.2.4,60.403799422007324,2025-04-01 15h26.02.679317 +0530,
surprise.jpg,s,51,3,8,None,0,,,8,3,51,1,164.42836609994993,,,,,,,,,,,,,,,,164.42293099989183,164.42836609994993,165.9226505998522,165.9226505998522,165.93930059997365,166.4227832998149,166.65923609980382,None,0,,,166.6772833999712,AN23,107,2025-04-01_15h18.38.845,416_EXPERIMENT_PSYCHOPY_AU2220019_AU2220225,2024.2.4,60.403799422007324,2025-04-01 15h26.02.679317 +0530,
fear.jpg,f,52,4,8,None,0,,,8,4,52,0,166.6772833999712,,,,,,,,,,,,,,,,166.67264009988867,166.6772833999712,168.17234449996613,168.17234449996613,168.1892393999733,168.67244909983128,168.90866379998624,None,0,,,168.92696399986744,AN23,107,2025-04-01_15h18.38.845,416_EXPERIMENT_PSYCHOPY_AU2220019_AU2220225,2024.2.4,60.403799422007324,2025-04-01 15h26.02.679317 +0530,
fear_lower_blur.jpg,f,53,5,8,None,0,,,8,5,53,3,168.92696399986744,,,,,,,,,,,,,,,,168.92191099980846,168.92696399986744,170.4231496998109,170.4231496998109,170.4404543999117,170.94106999994256,171.17235859995708,None,0,,,,AN23,107,2025-04-01_15h18.38.845,416_EXPERIMENT_PSYCHOPY_AU2220019_AU2220225,2024.2.4,60.403799422007324,2025-04-01 15h26.02.679317 +0530,
fear_upper_blur.jpg,f,54,0,9,None,0,,,9,0,54,2,171.19004439981654,,,,,,,,,,,,,,,,171.18539499980398,171.19004439981654,172.65764999995008,172.65764999995008,172.6907937999349,173.15750669990666,173.40617499989457,None,0,,,173.4249226998072,AN23,107,2025-04-01_15h18.38.845,416_EXPERIMENT_PSYCHOPY_AU2220019_AU2220225,2024.2.4,60.403799422007324,2025-04-01 15h26.02.679317 +0530,
fear.jpg,f,55,1,9,None,0,,,9,1,55,0,173.4249226998072,,,,,,,,,,,,,,,,173.419733799994,173.4249226998072,174.9238101998344,174.9238101998344,174.9238101998344,175.42369829979725,175.6588816998992,None,0,,,175.6763254997786,AN23,107,2025-04-01_15h18.38.845,416_EXPERIMENT_PSYCHOPY_AU2220019_AU2220225,2024.2.4,60.403799422007324,2025-04-01 15h26.02.679317 +0530,
fear_lower_blur.jpg,f,56,2,9,f,1,0.6552114998921752,None,9,2,56,3,175.6763254997786,,,,,,,,,,,,,,,,175.6714798999019,175.6763254997786,177.1728803999722,177.1728803999722,177.18942209985107,177.6736456998624,177.8426849998068,f,1,0.6552114998921752,None,,AN23,107,2025-04-01_15h18.38.845,416_EXPERIMENT_PSYCHOPY_AU2220019_AU2220225,2024.2.4,60.403799422007324,2025-04-01 15h26.02.679317 +0530,
surprise.jpg,s,57,3,9,None,0,,,9,3,57,1,177.8620157998521,,,,,,,,,,,,,,,,177.85714489989914,177.8620157998521,179.35745679982938,179.35745679982938,179.3739404999651,179.85717879980803,180.09208899992518,None,0,,,180.11074069980532,AN23,107,2025-04-01_15h18.38.845,416_EXPERIMENT_PSYCHOPY_AU2220019_AU2220225,2024.2.4,60.403799422007324,2025-04-01 15h26.02.679317 +0530,
surprise_upper_blur.jpg,s,58,4,9,None,0,,,9,4,58,4,180.11074069980532,,,,,,,,,,,,,,,,180.10548849985935,180.11074069980532,181.60713709983975,181.60713709983975,181.623997699935,182.10721829999238,182.355418499792,None,0,,,,AN23,107,2025-04-01_15h18.38.845,416_EXPERIMENT_PSYCHOPY_AU2220019_AU2220225,2024.2.4,60.403799422007324,2025-04-01 15h26.02.679317 +0530,
surprise_lower_blur.jpg,s,59,5,9,s,1,0.5180707999970764,None,9,5,59,5,182.37253729999065,,,,,,,,,,,,,,,,182.3626635998953,182.37253729999065,183.85704659996554,183.85704659996554,183.87395999999717,184.37358599994332,184.3915713999886,s,1,0.5180707999970764,None,,AN23,107,2025-04-01_15h18.38.845,416_EXPERIMENT_PSYCHOPY_AU2220019_AU2220225,2024.2.4,60.403799422007324,2025-04-01 15h26.02.679317 +0530,
fear_lower_blur.jpg,f,60,0,10,None,0,,,10,0,60,3,184.4067231998779,,,,,,,,,,,,,,,,184.40167779987678,184.4067231998779,185.89106959989294,185.89106959989294,185.90735969995148,186.3904849998653,186.62493309983984,None,0,,,186.64414499979466,AN23,107,2025-04-01_15h18.38.845,416_EXPERIMENT_PSYCHOPY_AU2220019_AU2220225,2024.2.4,60.403799422007324,2025-04-01 15h26.02.679317 +0530,
surprise_upper_blur.jpg,s,61,1,10,s,1,0.5345157999545336,None,10,1,61,4,186.64414499979466,,,,,,,,,,,,,,,,186.63878719997592,186.6562470998615,188.1403636999894,188.1403636999894,188.15680769993924,188.6412037999835,188.67876949999481,s,1,0.5345157999545336,None,,AN23,107,2025-04-01_15h18.38.845,416_EXPERIMENT_PSYCHOPY_AU2220019_AU2220225,2024.2.4,60.403799422007324,2025-04-01 15h26.02.679317 +0530,
fear.jpg,f,62,2,10,f,1,0.5321442999411374,None,10,2,62,0,188.6986352999229,,,,,,,,,,,,,,,,188.6930017999839,188.6986352999229,190.18941059987992,190.18941059987992,190.2044251000043,190.69071649992839,190.7260183999315,f,1,0.5321442999411374,None,,AN23,107,2025-04-01_15h18.38.845,416_EXPERIMENT_PSYCHOPY_AU2220019_AU2220225,2024.2.4,60.403799422007324,2025-04-01 15h26.02.679317 +0530,
fear_upper_blur.jpg,f,63,3,10,s,0,0.5732004002202302,None,10,3,63,2,190.74517459981143,,,,,,,,,,,,,,,,190.73973739985377,190.74517459981143,192.24073309986852,192.24073309986852,192.25697999983095,192.74074879987165,192.82605449995026,s,0,0.5732004002202302,None,,AN23,107,2025-04-01_15h18.38.845,416_EXPERIMENT_PSYCHOPY_AU2220019_AU2220225,2024.2.4,60.403799422007324,2025-04-01 15h26.02.679317 +0530,
surprise_lower_blur.jpg,s,64,4,10,None,0,,,10,4,64,5,192.84606459992938,,,,,,,,,,,,,,,,192.84027659986168,192.84606459992938,194.33913259999827,194.33913259999827,194.35628709988669,194.8399776997976,195.07569509977475,None,0,,,195.09522089990787,AN23,107,2025-04-01_15h18.38.845,416_EXPERIMENT_PSYCHOPY_AU2220019_AU2220225,2024.2.4,60.403799422007324,2025-04-01 15h26.02.679317 +0530,
surprise.jpg,s,65,5,10,None,0,,,10,5,65,1,195.09522089990787,,,,,,,,,,,,,,,,195.09019769984297,195.09522089990787,196.58965729991905,196.58965729991905,196.60720719979145,197.08896369999275,197.32483959989622,None,0,,,197.3431894998066,AN23,107,2025-04-01_15h18.38.845,416_EXPERIMENT_PSYCHOPY_AU2220019_AU2220225,2024.2.4,60.403799422007324,2025-04-01 15h26.02.679317 +0530,
surprise_lower_blur.jpg,s,66,0,11,None,0,,,11,0,66,5,197.3431894998066,,,,,,,,,,,,,,,,197.33795699989423,197.3431894998066,198.84074729983695,198.84074729983695,198.85758549999446,199.3553793998435,199.5894801998511,None,0,,,,AN23,107,2025-04-01_15h18.38.845,416_EXPERIMENT_PSYCHOPY_AU2220019_AU2220225,2024.2.4,60.403799422007324,2025-04-01 15h26.02.679317 +0530,
fear_lower_blur.jpg,f,67,1,11,None,0,,,11,1,67,3,199.60698959999718,,,,,,,,,,,,,,,,199.59965969994664,199.60698959999718,201.09025769983418,201.09025769983418,201.1072093998082,201.59051079978235,201.8251927997917,None,0,,,201.8432316998951,AN23,107,2025-04-01_15h18.38.845,416_EXPERIMENT_PSYCHOPY_AU2220019_AU2220225,2024.2.4,60.403799422007324,2025-04-01 15h26.02.679317 +0530,
fear_upper_blur.jpg,f,68,2,11,None,0,,,11,2,68,2,201.8432316998951,,,,,,,,,,,,,,,,201.83844909979962,201.8432316998951,203.34077269979753,203.34077269979753,203.35742459981702,203.8550195998978,204.07569869980216,None,0,,,204.0950370999053,AN23,107,2025-04-01_15h18.38.845,416_EXPERIMENT_PSYCHOPY_AU2220019_AU2220225,2024.2.4,60.403799422007324,2025-04-01 15h26.02.679317 +0530,
fear.jpg,f,69,3,11,s,0,0.6439392999745905,None,11,3,69,0,204.0950370999053,,,,,,,,,,,,,,,,204.09029459999874,204.0950370999053,205.5904847998172,205.5904847998172,205.60730629996397,206.0908632997889,206.2430249999743,s,0,0.6439392999745905,None,,AN23,107,2025-04-01_15h18.38.845,416_EXPERIMENT_PSYCHOPY_AU2220019_AU2220225,2024.2.4,60.403799422007324,2025-04-01 15h26.02.679317 +0530,
surprise_upper_blur.jpg,s,70,4,11,None,0,,,11,4,70,4,206.26211369992234,,,,,,,,,,,,,,,,206.25655209994875,206.26211369992234,207.7576954998076,207.7576954998076,207.77430769987404,208.25690109981224,208.49153719982132,None,0,,,208.5106640998274,AN23,107,2025-04-01_15h18.38.845,416_EXPERIMENT_PSYCHOPY_AU2220019_AU2220225,2024.2.4,60.403799422007324,2025-04-01 15h26.02.679317 +0530,
surprise.jpg,s,71,5,11,None,0,,,11,5,71,1,208.5106640998274,,,,,,,,,,,,,,,,208.50560879986733,208.5106640998274,210.00771819986403,210.00771819986403,210.0236487998627,210.50703019998036,210.74279719986953,None,0,,,210.76164309983142,AN23,107,2025-04-01_15h18.38.845,416_EXPERIMENT_PSYCHOPY_AU2220019_AU2220225,2024.2.4,60.403799422007324,2025-04-01 15h26.02.679317 +0530,
fear.jpg,f,72,0,12,None,0,,,12,0,72,0,210.76164309983142,,,,,,,,,,,,,,,,210.7568476998713,210.76164309983142,212.25747109996155,212.25747109996155,212.2738104998134,212.75678909989074,212.99216479994357,None,0,,,213.01015389990062,AN23,107,2025-04-01_15h18.38.845,416_EXPERIMENT_PSYCHOPY_AU2220019_AU2220225,2024.2.4,60.403799422007324,2025-04-01 15h26.02.679317 +0530,
fear_upper_blur.jpg,f,73,1,12,f,1,0.6500328001566231,None,12,1,73,2,213.01015389990062,,,,,,,,,,,,,,,,213.00549419992603,213.01015389990062,214.50781359989196,214.50781359989196,214.52390019991435,215.0070595999714,215.17515239981003,f,1,0.6500328001566231,None,,AN23,107,2025-04-01_15h18.38.845,416_EXPERIMENT_PSYCHOPY_AU2220019_AU2220225,2024.2.4,60.403799422007324,2025-04-01 15h26.02.679317 +0530,
surprise_upper_blur.jpg,s,74,2,12,s,1,0.4867191999219358,None,12,2,74,4,215.1905919997953,,,,,,,,,,,,,,,,215.18530929996632,215.1905919997953,216.69053929997608,216.69053929997608,216.69053929997608,217.2088678998407,217.19301399984397,s,1,0.4867191999219358,None,,AN23,107,2025-04-01_15h18.38.845,416_EXPERIMENT_PSYCHOPY_AU2220019_AU2220225,2024.2.4,60.403799422007324,2025-04-01 15h26.02.679317 +0530,
fear_lower_blur.jpg,f,75,3,12,None,0,,,12,3,75,3,217.2088678998407,,,,,,,,,,,,,,,,217.20348729984835,217.2088678998407,218.7054441999644,218.7054441999644,218.7221557998564,219.20678449980915,219.44188009994105,None,0,,,219.46074949996546,AN23,107,2025-04-01_15h18.38.845,416_EXPERIMENT_PSYCHOPY_AU2220019_AU2220225,2024.2.4,60.403799422007324,2025-04-01 15h26.02.679317 +0530,
surprise_lower_blur.jpg,s,76,4,12,s,1,0.5198455001227558,None,12,4,76,5,219.46074949996546,,,,,,,,,,,,,,,,219.45614329981618,219.46074949996546,220.9570264997892,220.9570264997892,220.97421569982544,221.45597309991717,221.49006949993782,s,1,0.5198455001227558,None,,AN23,107,2025-04-01_15h18.38.845,416_EXPERIMENT_PSYCHOPY_AU2220019_AU2220225,2024.2.4,60.403799422007324,2025-04-01 15h26.02.679317 +0530,
surprise.jpg,s,77,5,12,s,1,0.48971940018236637,None,12,5,77,1,221.50817449996248,,,,,,,,,,,,,,,,221.50287959980778,221.50817449996248,222.99076329986565,222.99076329986565,223.0067544998601,223.5105324999895,223.49007669999264,s,1,0.48971940018236637,None,,AN23,107,2025-04-01_15h18.38.845,416_EXPERIMENT_PSYCHOPY_AU2220019_AU2220225,2024.2.4,60.403799422007324,2025-04-01 15h26.02.679317 +0530,
surprise_lower_blur.jpg,s,78,0,13,s,1,0.4496951000764966,None,13,0,78,5,223.5105324999895,,,,,,,,,,,,,,,,223.5046272999607,223.5105324999895,224.99073749990202,224.99073749990202,225.02444139984436,,225.4441696999129,s,1,0.4496951000764966,None,,AN23,107,2025-04-01_15h18.38.845,416_EXPERIMENT_PSYCHOPY_AU2220019_AU2220225,2024.2.4,60.403799422007324,2025-04-01 15h26.02.679317 +0530,
surprise.jpg,s,79,1,13,s,1,0.5284587000496686,None,13,1,79,1,225.46459779981524,,,,,,,,,,,,,,,,225.45916349999607,225.46459779981524,226.95797249977477,226.95797249977477,226.97382169985212,227.45742689981125,227.49321059999056,s,1,0.5284587000496686,None,,AN23,107,2025-04-01_15h18.38.845,416_EXPERIMENT_PSYCHOPY_AU2220019_AU2220225,2024.2.4,60.403799422007324,2025-04-01 15h26.02.679317 +0530,
fear_upper_blur.jpg,f,80,2,13,f,1,0.4493381998036057,None,13,2,80,2,227.51425549993291,,,,,,,,,,,,,,,,227.50798219977878,227.51425549993291,229.00693779997528,229.00693779997528,229.0239036998246,,229.4604634998832,f,1,0.4493381998036057,None,,AN23,107,2025-04-01_15h18.38.845,416_EXPERIMENT_PSYCHOPY_AU2220019_AU2220225,2024.2.4,60.403799422007324,2025-04-01 15h26.02.679317 +0530,
surprise_upper_blur.jpg,s,81,3,13,s,1,0.5657073999755085,None,13,3,81,4,229.4801562000066,,,,,,,,,,,,,,,,229.47449079994112,229.4801562000066,230.97373239998706,230.97373239998706,230.99094329983927,231.47401359979995,231.54309649998322,s,1,0.5657073999755085,None,,AN23,107,2025-04-01_15h18.38.845,416_EXPERIMENT_PSYCHOPY_AU2220019_AU2220225,2024.2.4,60.403799422007324,2025-04-01 15h26.02.679317 +0530,
fear_lower_blur.jpg,f,82,4,13,None,0,,,13,4,82,3,231.56269559985958,,,,,,,,,,,,,,,,231.55721499980427,231.56269559985958,233.05714859999716,233.05714859999716,233.07352549978532,233.55613799998537,233.79170749988407,None,0,,,233.81075959978625,AN23,107,2025-04-01_15h18.38.845,416_EXPERIMENT_PSYCHOPY_AU2220019_AU2220225,2024.2.4,60.403799422007324,2025-04-01 15h26.02.679317 +0530,
fear.jpg,f,83,5,13,s,0,0.416616200003773,None,13,5,83,0,233.81075959978625,,,,,,,,,,,,,,,,233.80589689989574,233.81075959978625,235.30860629980452,235.30860629980452,235.32401679991744,,235.74304319988005,s,0,0.416616200003773,None,,AN23,107,2025-04-01_15h18.38.845,416_EXPERIMENT_PSYCHOPY_AU2220019_AU2220225,2024.2.4,60.403799422007324,2025-04-01 15h26.02.679317 +0530,
fear.jpg,f,84,0,14,f,1,0.6130162000190467,None,14,0,84,0,235.76222489983775,,,,,,,,,,,,,,,,235.75777199980803,235.76222489983775,237.25531709985808,237.25531709985808,237.27192119997926,237.75723219988868,237.87639439990744,f,1,0.6130162000190467,None,,AN23,107,2025-04-01_15h18.38.845,416_EXPERIMENT_PSYCHOPY_AU2220019_AU2220225,2024.2.4,60.403799422007324,2025-04-01 15h26.02.679317 +0530,
fear_upper_blur.jpg,f,85,1,14,f,1,0.3986833000089973,None,14,1,85,2,237.8964382999111,,,,,,,,,,,,,,,,237.89079579990357,237.8964382999111,239.39074749988504,239.39074749988504,239.40698249987327,,239.79365729982965,f,1,0.3986833000089973,None,,AN23,107,2025-04-01_15h18.38.845,416_EXPERIMENT_PSYCHOPY_AU2220019_AU2220225,2024.2.4,60.403799422007324,2025-04-01 15h26.02.679317 +0530,
surprise_lower_blur.jpg,s,86,2,14,s,1,0.5089578998740762,None,14,2,86,5,239.81332809990272,,,,,,,,,,,,,,,,239.80765649979003,239.81332809990272,241.30738809984177,241.30738809984177,241.32351949997246,241.8071212999057,241.82620229991153,s,1,0.5089578998740762,None,,AN23,107,2025-04-01_15h18.38.845,416_EXPERIMENT_PSYCHOPY_AU2220019_AU2220225,2024.2.4,60.403799422007324,2025-04-01 15h26.02.679317 +0530,
surprise_upper_blur.jpg,s,87,3,14,s,1,0.7147456998936832,None,14,3,87,4,241.84535449999385,,,,,,,,,,,,,,,,241.8401500999462,241.84535449999385,243.34048619982786,243.34048619982786,243.35740709980018,243.84085339982994,244.06107029994018,s,1,0.7147456998936832,None,,AN23,107,2025-04-01_15h18.38.845,416_EXPERIMENT_PSYCHOPY_AU2220019_AU2220225,2024.2.4,60.403799422007324,2025-04-01 15h26.02.679317 +0530,
fear_lower_blur.jpg,f,88,4,14,f,1,0.5783158000558615,None,14,4,88,3,244.07963369996287,,,,,,,,,,,,,,,,244.074031899916,244.07963369996287,245.5739399997983,245.5739399997983,245.59036539983936,246.0736804998014,246.15903839981183,f,1,0.5783158000558615,None,,AN23,107,2025-04-01_15h18.38.845,416_EXPERIMENT_PSYCHOPY_AU2220019_AU2220225,2024.2.4,60.403799422007324,2025-04-01 15h26.02.679317 +0530,
surprise.jpg,s,89,5,14,s,1,0.6402535000815988,None,14,5,89,1,246.17871889984235,,,,,,,,,,,,,,,,246.17337559978478,246.17871889984235,247.6740460000001,247.6740460000001,247.69101749989204,248.19046660000458,248.32619679998606,s,1,0.6402535000815988,None,,AN23,107,2025-04-01_15h18.38.845,416_EXPERIMENT_PSYCHOPY_AU2220019_AU2220225,2024.2.4,60.403799422007324,2025-04-01 15h26.02.679317 +0530,
surprise_upper_blur.jpg,s,90,0,15,s,1,0.6654410001356155,None,15,0,90,4,248.3456851998344,,,,,,,,,,,,,,,,248.34011519979686,248.3456851998344,249.84066439978778,249.84066439978778,249.85711559979245,250.35515459999442,250.5094058997929,s,1,0.6654410001356155,None,,AN23,107,2025-04-01_15h18.38.845,416_EXPERIMENT_PSYCHOPY_AU2220019_AU2220225,2024.2.4,60.403799422007324,2025-04-01 15h26.02.679317 +0530,
fear.jpg,f,91,1,15,f,1,0.42040479998104274,None,15,1,91,0,250.530166399898,,,,,,,,,,,,,,,,250.5242567998357,250.530166399898,252.0242894999683,252.0242894999683,252.04015969997272,,252.45949339983054,f,1,0.42040479998104274,None,,AN23,107,2025-04-01_15h18.38.845,416_EXPERIMENT_PSYCHOPY_AU2220019_AU2220225,2024.2.4,60.403799422007324,2025-04-01 15h26.02.679317 +0530,
fear_lower_blur.jpg,f,92,2,15,f,1,0.7199705000966787,None,15,2,92,3,252.48053579987027,,,,,,,,,,,,,,,,252.4748144999612,252.48053579987027,253.97404889995232,253.97404889995232,253.99048599996604,254.48951829993166,254.7070120999124,f,1,0.7199705000966787,None,,AN23,107,2025-04-01_15h18.38.845,416_EXPERIMENT_PSYCHOPY_AU2220019_AU2220225,2024.2.4,60.403799422007324,2025-04-01 15h26.02.679317 +0530,
fear_upper_blur.jpg,f,93,3,15,f,1,0.5184581999201328,None,15,3,93,2,254.72464829985984,,,,,,,,,,,,,,,,254.71895039989613,254.72464829985984,256.2228494998999,256.2228494998999,256.2383551998064,256.72338569979183,256.756655999925,f,1,0.5184581999201328,None,,AN23,107,2025-04-01_15h18.38.845,416_EXPERIMENT_PSYCHOPY_AU2220019_AU2220225,2024.2.4,60.403799422007324,2025-04-01 15h26.02.679317 +0530,
surprise.jpg,s,94,4,15,s,1,0.4531776998192072,None,15,4,94,1,256.77727989992127,,,,,,,,,,,,,,,,256.77175509999506,256.77727989992127,258.2573839998804,258.2573839998804,258.29029649985023,,258.7265212999191,s,1,0.4531776998192072,None,,AN23,107,2025-04-01_15h18.38.845,416_EXPERIMENT_PSYCHOPY_AU2220019_AU2220225,2024.2.4,60.403799422007324,2025-04-01 15h26.02.679317 +0530,
surprise_lower_blur.jpg,s,95,5,15,s,1,0.6435626999009401,None,15,5,95,5,258.74545089993626,,,,,,,,,,,,,,,,258.7401196998544,258.74545089993626,260.24115399993025,260.24115399993025,260.25767719978467,260.74229239998385,260.8930142999161,s,1,0.6435626999009401,None,,AN23,107,2025-04-01_15h18.38.845,416_EXPERIMENT_PSYCHOPY_AU2220019_AU2220225,2024.2.4,60.403799422007324,2025-04-01 15h26.02.679317 +0530,
fear_lower_blur.jpg,f,96,0,16,f,1,0.5041221999563277,None,16,0,96,3,260.9086391997989,,,,,,,,,,,,,,,,260.90401259995997,260.9086391997989,262.4064116999507,262.4064116999507,262.4239566999022,262.90765029983595,262.926964599872,f,1,0.5041221999563277,None,,AN23,107,2025-04-01_15h18.38.845,416_EXPERIMENT_PSYCHOPY_AU2220019_AU2220225,2024.2.4,60.403799422007324,2025-04-01 15h26.02.679317 +0530,
surprise_upper_blur.jpg,s,97,1,16,s,1,0.7167875999584794,None,16,1,97,4,262.9473274999764,,,,,,,,,,,,,,,,262.9419094999321,262.9473274999764,264.44106169999577,264.44106169999577,264.45736039988697,264.94105009990744,265.17493939981796,s,1,0.7167875999584794,None,,AN23,107,2025-04-01_15h18.38.845,416_EXPERIMENT_PSYCHOPY_AU2220019_AU2220225,2024.2.4,60.403799422007324,2025-04-01 15h26.02.679317 +0530,
surprise_lower_blur.jpg,s,98,2,16,None,0,,,16,2,98,5,265.1919324998744,,,,,,,,,,,,,,,,265.1856683997903,265.1919324998744,266.6742073998321,266.6742073998321,266.7075661998242,267.1743325998541,267.40896929986775,None,0,,,267.42943349992856,AN23,107,2025-04-01_15h18.38.845,416_EXPERIMENT_PSYCHOPY_AU2220019_AU2220225,2024.2.4,60.403799422007324,2025-04-01 15h26.02.679317 +0530,
fear.jpg,f,99,3,16,f,1,0.5394847998395562,None,16,3,99,0,267.42943349992856,,,,,,,,,,,,,,,,267.4242789999116,267.42943349992856,268.92452749982476,268.92452749982476,268.9410180998966,269.4241828999948,269.47649139980786,f,1,0.5394847998395562,None,,AN23,107,2025-04-01_15h18.38.845,416_EXPERIMENT_PSYCHOPY_AU2220019_AU2220225,2024.2.4,60.403799422007324,2025-04-01 15h26.02.679317 +0530,
surprise.jpg,s,100,4,16,s,1,0.5677424999885261,None,16,4,100,1,269.4981437998358,,,,,,,,,,,,,,,,269.4916257997975,269.4981437998358,270.9910574997775,270.9910574997775,271.00789639982395,271.50775179988705,271.57589049986564,s,1,0.5677424999885261,None,,AN23,107,2025-04-01_15h18.38.845,416_EXPERIMENT_PSYCHOPY_AU2220019_AU2220225,2024.2.4,60.403799422007324,2025-04-01 15h26.02.679317 +0530,
fear_upper_blur.jpg,f,101,5,16,f,1,0.5697414001915604,None,16,5,101,2,271.5958833999466,,,,,,,,,,,,,,,,271.59044329985045,271.5958833999466,273.0896930999588,273.0896930999588,273.1067530999426,273.59116389998235,273.67669359990396,f,1,0.5697414001915604,None,,AN23,107,2025-04-01_15h18.38.845,416_EXPERIMENT_PSYCHOPY_AU2220019_AU2220225,2024.2.4,60.403799422007324,2025-04-01 15h26.02.679317 +0530,
fear_lower_blur.jpg,f,102,0,17,f,1,0.6848923000507057,None,17,0,102,3,273.6946542998776,,,,,,,,,,,,,,,,273.68934499984607,273.6946542998776,275.1895068997983,275.1895068997983,275.20650949981064,275.69107329985127,275.8905192997772,f,1,0.6848923000507057,None,,AN23,107,2025-04-01_15h18.38.845,416_EXPERIMENT_PSYCHOPY_AU2220019_AU2220225,2024.2.4,60.403799422007324,2025-04-01 15h26.02.679317 +0530,
surprise_lower_blur.jpg,s,103,1,17,s,1,0.4920185999944806,None,17,1,103,5,275.90959099982865,,,,,,,,,,,,,,,,275.9036530999001,275.90959099982865,277.3911581998691,277.3911581998691,277.4244406998623,277.89096249989234,277.89331559999846,s,1,0.4920185999944806,None,,AN23,107,2025-04-01_15h18.38.845,416_EXPERIMENT_PSYCHOPY_AU2220019_AU2220225,2024.2.4,60.403799422007324,2025-04-01 15h26.02.679317 +0530,
fear_upper_blur.jpg,f,104,2,17,f,1,0.5922981000039726,None,17,2,104,2,277.9130266997963,,,,,,,,,,,,,,,,277.9074258999899,277.9130266997963,279.40775019978173,279.40775019978173,279.42420649994165,279.9080380999949,280.0088674998842,f,1,0.5922981000039726,None,,AN23,107,2025-04-01_15h18.38.845,416_EXPERIMENT_PSYCHOPY_AU2220019_AU2220225,2024.2.4,60.403799422007324,2025-04-01 15h26.02.679317 +0530,
surprise.jpg,s,105,3,17,s,1,0.5014764000661671,None,17,3,105,1,280.02939889999107,,,,,,,,,,,,,,,,280.02355479984544,280.02939889999107,281.50765709998086,281.50765709998086,281.54120509978384,282.00752459978685,282.0259856998455,s,1,0.5014764000661671,None,,AN23,107,2025-04-01_15h18.38.845,416_EXPERIMENT_PSYCHOPY_AU2220019_AU2220225,2024.2.4,60.403799422007324,2025-04-01 15h26.02.679317 +0530,
surprise_upper_blur.jpg,s,106,4,17,s,1,0.5705721999984235,None,17,4,106,4,282.0451729998458,,,,,,,,,,,,,,,,282.0397671998944,282.0451729998458,283.5390419999603,283.5390419999603,283.555923699867,284.0412811997812,284.1244214999024,s,1,0.5705721999984235,None,,AN23,107,2025-04-01_15h18.38.845,416_EXPERIMENT_PSYCHOPY_AU2220019_AU2220225,2024.2.4,60.403799422007324,2025-04-01 15h26.02.679317 +0530,
fear.jpg,f,107,5,17,f,1,0.5474898000247777,None,17,5,107,0,284.14033559989184,,,,,,,,,,,,,,,,284.13534659985453,284.14033559989184,285.64040409983136,285.64040409983136,285.6557500998024,286.13957679993473,286.19135949993506,f,1,0.5474898000247777,None,,AN23,107,2025-04-01_15h18.38.845,416_EXPERIMENT_PSYCHOPY_AU2220019_AU2220225,2024.2.4,60.403799422007324,2025-04-01 15h26.02.679317 +0530,
surprise.jpg,s,108,0,18,s,1,0.5709904001560062,None,18,0,108,1,286.2087027998641,,,,,,,,,,,,,,,,286.203153999988,286.2087027998641,287.6911309999414,287.6911309999414,287.7075449998956,288.20803939993493,288.2763393998612,s,1,0.5709904001560062,None,,AN23,107,2025-04-01_15h18.38.845,416_EXPERIMENT_PSYCHOPY_AU2220019_AU2220225,2024.2.4,60.403799422007324,2025-04-01 15h26.02.679317 +0530,
fear.jpg,f,109,1,18,f,1,0.44045750005170703,None,18,1,109,0,288.2957895998843,,,,,,,,,,,,,,,,288.29136129980907,288.2957895998843,289.7906282998156,289.7906282998156,289.80588319990784,,290.2435607998632,f,1,0.44045750005170703,None,,AN23,107,2025-04-01_15h18.38.845,416_EXPERIMENT_PSYCHOPY_AU2220019_AU2220225,2024.2.4,60.403799422007324,2025-04-01 15h26.02.679317 +0530,
surprise_lower_blur.jpg,s,110,2,18,s,1,0.48530489997938275,None,18,2,110,5,290.2631490000058,,,,,,,,,,,,,,,,290.2576201998163,290.2631490000058,291.7570613999851,291.7570613999851,291.77392759989016,292.2572341999039,292.25917659979314,s,1,0.48530489997938275,None,,AN23,107,2025-04-01_15h18.38.845,416_EXPERIMENT_PSYCHOPY_AU2220019_AU2220225,2024.2.4,60.403799422007324,2025-04-01 15h26.02.679317 +0530,
surprise_upper_blur.jpg,s,111,3,18,s,1,0.4948030000086874,None,18,3,111,4,292.2786442998331,,,,,,,,,,,,,,,,292.2733206998091,292.2786442998331,293.77224119985476,293.77224119985476,293.7891519998666,294.27398839988746,294.2760450998321,s,1,0.4948030000086874,None,,AN23,107,2025-04-01_15h18.38.845,416_EXPERIMENT_PSYCHOPY_AU2220019_AU2220225,2024.2.4,60.403799422007324,2025-04-01 15h26.02.679317 +0530,
fear_lower_blur.jpg,f,112,4,18,f,1,0.560841599944979,None,18,4,112,3,294.2951522998046,,,,,,,,,,,,,,,,294.2899754999671,294.2951522998046,295.7887335999403,295.7887335999403,295.80511579988524,296.29146019998007,296.35898829996586,f,1,0.560841599944979,None,,AN23,107,2025-04-01_15h18.38.845,416_EXPERIMENT_PSYCHOPY_AU2220019_AU2220225,2024.2.4,60.403799422007324,2025-04-01 15h26.02.679317 +0530,
fear_upper_blur.jpg,f,113,5,18,f,1,0.49672699999064207,None,18,5,113,2,296.3746622998733,,,,,,,,,,,,,,,,296.3696509997826,296.3746622998733,297.8723386998754,297.8723386998754,297.8888493999839,298.3736395998858,298.37584249977954,f,1,0.49672699999064207,None,,AN23,107,2025-04-01_15h18.38.845,416_EXPERIMENT_PSYCHOPY_AU2220019_AU2220225,2024.2.4,60.403799422007324,2025-04-01 15h26.02.679317 +0530,
surprise_upper_blur.jpg,s,114,0,19,s,1,0.49072039988823235,None,19,0,114,4,298.39522319985554,,,,,,,,,,,,,,,,298.38952389988117,298.39522319985554,299.89066429995,299.89066429995,299.9072351998184,300.39027009997517,300.39248089981265,s,1,0.49072039988823235,None,,AN23,107,2025-04-01_15h18.38.845,416_EXPERIMENT_PSYCHOPY_AU2220019_AU2220225,2024.2.4,60.403799422007324,2025-04-01 15h26.02.679317 +0530,
surprise_lower_blur.jpg,s,115,1,19,s,1,0.553810799960047,None,19,1,115,5,300.4130727997981,,,,,,,,,,,,,,,,300.4078177998308,300.4130727997981,301.90716579998843,301.90716579998843,301.9239393998869,302.40706969983876,302.4754119999707,s,1,0.553810799960047,None,,AN23,107,2025-04-01_15h18.38.845,416_EXPERIMENT_PSYCHOPY_AU2220019_AU2220225,2024.2.4,60.403799422007324,2025-04-01 15h26.02.679317 +0530,
fear_lower_blur.jpg,f,116,2,19,f,1,0.5829483000561595,None,19,2,116,3,302.49523409991525,,,,,,,,,,,,,,,,302.48979849996977,302.49523409991525,303.99019299983047,303.99019299983047,304.0068210999016,304.49021889991127,304.57799749984406,f,1,0.5829483000561595,None,,AN23,107,2025-04-01_15h18.38.845,416_EXPERIMENT_PSYCHOPY_AU2220019_AU2220225,2024.2.4,60.403799422007324,2025-04-01 15h26.02.679317 +0530,
fear_upper_blur.jpg,f,117,3,19,f,1,0.5599792001303285,None,19,3,117,2,304.59453269978985,,,,,,,,,,,,,,,,304.59013679996133,304.59453269978985,306.0906346999109,306.0906346999109,306.10726499999873,306.59044869989157,306.6590974999126,f,1,0.5599792001303285,None,,AN23,107,2025-04-01_15h18.38.845,416_EXPERIMENT_PSYCHOPY_AU2220019_AU2220225,2024.2.4,60.403799422007324,2025-04-01 15h26.02.679317 +0530,
surprise.jpg,s,118,4,19,s,1,0.576612199889496,None,19,4,118,1,306.6803140998818,,,,,,,,,,,,,,,,306.6744011999108,306.6803140998818,308.1741612998303,308.1741612998303,308.1905921997968,308.6734660998918,308.7563311997801,s,1,0.576612199889496,None,,AN23,107,2025-04-01_15h18.38.845,416_EXPERIMENT_PSYCHOPY_AU2220019_AU2220225,2024.2.4,60.403799422007324,2025-04-01 15h26.02.679317 +0530,
fear.jpg,f,119,5,19,s,0,0.49064040021039546,None,19,5,119,0,308.77678699977696,,,,,,,,,,,,,,,,308.7714425998274,308.77678699977696,310.2548005999997,310.2548005999997,310.28840259998105,310.755297599826,310.7568709999323,s,0,0.49064040021039546,None,,AN23,107,2025-04-01_15h18.38.845,416_EXPERIMENT_PSYCHOPY_AU2220019_AU2220225,2024.2.4,60.403799422007324,2025-04-01 15h26.02.679317 +0530,
