stimulus_image,correct_response,thisN,thisTrialN,thisRepN,key_resp.keys,key_resp.corr,key_resp.rt,key_resp.duration,loop.thisRepN,loop.thisTrialN,loop.thisN,loop.thisIndex,thisRow.t,notes,guide.started,instructions.started,ins_resp.started,guide.stopped,ins_resp.keys,ins_resp.rt,ins_resp.duration,guide_2.started,text.started,key_resp_2.started,guide_2.stopped,key_resp_2.keys,key_resp_2.rt,key_resp_2.duration,trial.started,fixation.started,image.started,key_resp.started,fixation.stopped,image.stopped,trial.stopped,loop.key_resp.keys,loop.key_resp.corr,key_resp.stopped,loop.key_resp.rt,loop.key_resp.duration,participant,session,date,expName,psychopyVersion,frameRate,expStart,
,,,,,,,,,,,,,,,0.0033991999999898326,0.009084800000010773,0.009084800000010773,68.9673014,space,68.81763650000002,None,,,,,,,,,,,,,,,,,,,,AR21,112,2025-04-03_14h46.40.165,416_EXPERIMENT_PSYCHOPY_AU2220019_AU2220225,2024.2.4,59.97508634913347,2025-04-03 14h47.35.919655 +0530,
,,,,,,,,,,,,,,,,,,,,,,68.96740299999999,68.97297900000001,68.97297900000001,76.13807320000001,space,7.157434099999989,None,,,,,,,,,,,,,AR21,112,2025-04-03_14h46.40.165,416_EXPERIMENT_PSYCHOPY_AU2220019_AU2220225,2024.2.4,59.97508634913347,2025-04-03 14h47.35.919655 +0530,
fear.jpg,f,0,0,0,None,0,,,0,0,0,0,76.2822429,,,,,,,,,,,,,,,,76.27397149999999,76.2822429,77.6802883,77.6802883,77.78937669999999,78.1886743,78.3892591,None,0,,,,AR21,112,2025-04-03_14h46.40.165,416_EXPERIMENT_PSYCHOPY_AU2220019_AU2220225,2024.2.4,59.97508634913347,2025-04-03 14h47.35.919655 +0530,
fear_lower_blur.jpg,f,1,1,0,None,0,,,0,1,1,3,78.4373219,,,,,,,,,,,,,,,,78.43312940000001,78.4373219,79.8893923,79.8893923,79.939098,80.3887072,80.62408239999999,None,0,80.67301459999999,,,AR21,112,2025-04-03_14h46.40.165,416_EXPERIMENT_PSYCHOPY_AU2220019_AU2220225,2024.2.4,59.97508634913347,2025-04-03 14h47.35.919655 +0530,
surprise_upper_blur.jpg,s,2,2,0,None,0,,,0,2,2,4,80.67301459999999,,,,,,,,,,,,,,,,80.66841640000001,80.67301459999999,82.1395848,82.1395848,82.17311670000001,82.63907739999999,82.8739869,None,0,82.92244260000001,,,AR21,112,2025-04-03_14h46.40.165,416_EXPERIMENT_PSYCHOPY_AU2220019_AU2220225,2024.2.4,59.97508634913347,2025-04-03 14h47.35.919655 +0530,
fear_upper_blur.jpg,f,3,3,0,None,0,,,0,3,3,2,82.92244260000001,,,,,,,,,,,,,,,,82.9174405,82.92244260000001,84.3894616,84.3894616,84.42273449999999,84.88891660000002,85.12391400000001,None,0,85.14746550000001,,,AR21,112,2025-04-03_14h46.40.165,416_EXPERIMENT_PSYCHOPY_AU2220019_AU2220225,2024.2.4,59.97508634913347,2025-04-03 14h47.35.919655 +0530,
surprise.jpg,s,4,4,0,None,0,,,0,4,4,1,85.14746550000001,,,,,,,,,,,,,,,,85.14326510000001,85.14746550000001,86.63928999999999,86.63928999999999,86.65596099999999,87.13883129999999,87.37328540000001,None,0,87.420749,,,AR21,112,2025-04-03_14h46.40.165,416_EXPERIMENT_PSYCHOPY_AU2220019_AU2220225,2024.2.4,59.97508634913347,2025-04-03 14h47.35.919655 +0530,
surprise_lower_blur.jpg,s,5,5,0,None,0,,,0,5,5,5,87.420749,,,,,,,,,,,,,,,,87.41615759999999,87.420749,88.88881860000001,88.88881860000001,88.922079,89.38831809999999,89.62342770000001,None,0,89.6417409,,,AR21,112,2025-04-03_14h46.40.165,416_EXPERIMENT_PSYCHOPY_AU2220019_AU2220225,2024.2.4,59.97508634913347,2025-04-03 14h47.35.919655 +0530,
fear.jpg,f,6,0,1,None,0,,,1,0,6,0,89.6417409,,,,,,,,,,,,,,,,89.6373714,89.6417409,91.1395871,91.1395871,91.15618649999999,91.63918330000001,91.8889547,None,0,,,,AR21,112,2025-04-03_14h46.40.165,416_EXPERIMENT_PSYCHOPY_AU2220019_AU2220225,2024.2.4,59.97508634913347,2025-04-03 14h47.35.919655 +0530,
surprise.jpg,s,7,1,1,None,0,,,1,1,7,1,91.9051307,,,,,,,,,,,,,,,,91.9001553,91.9051307,93.3892103,93.3892103,93.40597170000001,93.88883530000001,94.12252040000001,None,0,94.1392849,,,AR21,112,2025-04-03_14h46.40.165,416_EXPERIMENT_PSYCHOPY_AU2220019_AU2220225,2024.2.4,59.97508634913347,2025-04-03 14h47.35.919655 +0530,
surprise_upper_blur.jpg,s,8,2,1,None,0,,,1,2,8,4,94.1392849,,,,,,,,,,,,,,,,94.13482640000001,94.1392849,95.63963770000001,95.63963770000001,95.63963770000001,96.13930200000001,96.37348850000001,None,0,96.3904847,,,AR21,112,2025-04-03_14h46.40.165,416_EXPERIMENT_PSYCHOPY_AU2220019_AU2220225,2024.2.4,59.97508634913347,2025-04-03 14h47.35.919655 +0530,
surprise_lower_blur.jpg,s,9,3,1,None,0,,,1,3,9,5,96.3904847,,,,,,,,,,,,,,,,96.3862398,96.3904847,97.88964250000001,97.88964250000001,97.9059287,98.38918530000001,98.6239952,None,0,98.6410367,,,AR21,112,2025-04-03_14h46.40.165,416_EXPERIMENT_PSYCHOPY_AU2220019_AU2220225,2024.2.4,59.97508634913347,2025-04-03 14h47.35.919655 +0530,
fear_lower_blur.jpg,f,10,4,1,None,0,,,1,4,10,3,98.6410367,,,,,,,,,,,,,,,,98.63716529999999,98.6410367,100.1393684,100.1393684,100.15618029999999,100.63910390000001,100.8738198,None,0,100.8906681,,,AR21,112,2025-04-03_14h46.40.165,416_EXPERIMENT_PSYCHOPY_AU2220019_AU2220225,2024.2.4,59.97508634913347,2025-04-03 14h47.35.919655 +0530,
fear_upper_blur.jpg,f,11,5,1,None,0,,,1,5,11,2,100.8906681,,,,,,,,,,,,,,,,100.8866601,100.8906681,102.3896,102.3896,102.4061639,102.8889034,103.1236767,None,0,103.14065869999999,,,AR21,112,2025-04-03_14h46.40.165,416_EXPERIMENT_PSYCHOPY_AU2220019_AU2220225,2024.2.4,59.97508634913347,2025-04-03 14h47.35.919655 +0530,
surprise_upper_blur.jpg,s,12,0,2,None,0,,,2,0,12,4,103.14065869999999,,,,,,,,,,,,,,,,103.1366846,103.14065869999999,104.63943,104.63943,104.65651400000002,105.1390102,105.37427389999999,None,0,105.3915974,,,AR21,112,2025-04-03_14h46.40.165,416_EXPERIMENT_PSYCHOPY_AU2220019_AU2220225,2024.2.4,59.97508634913347,2025-04-03 14h47.35.919655 +0530,
fear_lower_blur.jpg,f,13,1,2,f,1,0.6725631999999848,None,2,1,13,3,105.3915974,,,,,,,,,,,,,,,,105.38749419999999,105.3915974,106.8894565,106.8894565,106.9058665,107.3887183,107.57443889999999,f,1,,0.6725631999999848,None,AR21,112,2025-04-03_14h46.40.165,416_EXPERIMENT_PSYCHOPY_AU2220019_AU2220225,2024.2.4,59.97508634913347,2025-04-03 14h47.35.919655 +0530,
fear.jpg,f,14,2,2,None,0,,,2,2,14,0,107.59343559999999,,,,,,,,,,,,,,,,107.58858370000002,107.59343559999999,109.08899170000001,109.08899170000001,109.1057165,109.5882354,109.822014,None,0,109.83850319999999,,,AR21,112,2025-04-03_14h46.40.165,416_EXPERIMENT_PSYCHOPY_AU2220019_AU2220225,2024.2.4,59.97508634913347,2025-04-03 14h47.35.919655 +0530,
fear_upper_blur.jpg,f,15,3,2,f,1,0.1749977000000058,None,2,3,15,2,109.83850319999999,,,,,,,,,,,,,,,,109.83463280000001,109.83850319999999,111.339698,111.339698,111.339698,,111.5249502,f,1,,0.1749977000000058,None,AR21,112,2025-04-03_14h46.40.165,416_EXPERIMENT_PSYCHOPY_AU2220019_AU2220225,2024.2.4,59.97508634913347,2025-04-03 14h47.35.919655 +0530,
surprise.jpg,s,16,4,2,None,0,,,2,4,16,1,111.5442142,,,,,,,,,,,,,,,,111.5392372,111.5442142,113.0398755,113.0398755,113.0563372,113.53894629999999,113.78870179999998,None,0,,,,AR21,112,2025-04-03_14h46.40.165,416_EXPERIMENT_PSYCHOPY_AU2220019_AU2220225,2024.2.4,59.97508634913347,2025-04-03 14h47.35.919655 +0530,
surprise_lower_blur.jpg,s,17,5,2,None,0,,,2,5,17,5,113.805487,,,,,,,,,,,,,,,,113.80152669999998,113.805487,115.28925910000001,115.28925910000001,115.3056291,115.78894599999998,116.02367469999999,None,0,116.04124870000001,,,AR21,112,2025-04-03_14h46.40.165,416_EXPERIMENT_PSYCHOPY_AU2220019_AU2220225,2024.2.4,59.97508634913347,2025-04-03 14h47.35.919655 +0530,
surprise_lower_blur.jpg,s,18,0,3,None,0,,,3,0,18,5,116.04124870000001,,,,,,,,,,,,,,,,116.0370801,116.04124870000001,117.53915170000002,117.53915170000002,117.55581409999999,118.03908370000002,118.2738406,None,0,118.29079479999999,,,AR21,112,2025-04-03_14h46.40.165,416_EXPERIMENT_PSYCHOPY_AU2220019_AU2220225,2024.2.4,59.97508634913347,2025-04-03 14h47.35.919655 +0530,
fear_upper_blur.jpg,f,19,1,3,None,0,,,3,1,19,2,118.29079479999999,,,,,,,,,,,,,,,,118.28683070000002,118.29079479999999,119.78964090000002,119.78964090000002,119.80631810000003,120.2885871,120.52399670000003,None,0,120.54133340000001,,,AR21,112,2025-04-03_14h46.40.165,416_EXPERIMENT_PSYCHOPY_AU2220019_AU2220225,2024.2.4,59.97508634913347,2025-04-03 14h47.35.919655 +0530,
surprise_upper_blur.jpg,s,20,2,3,s,1,0.5998649999999657,None,3,2,20,4,120.54133340000001,,,,,,,,,,,,,,,,120.53688120000001,120.54133340000001,122.03928920000001,122.03928920000001,122.05632089999997,122.53876310000001,122.64276930000003,s,1,,0.5998649999999657,None,AR21,112,2025-04-03_14h46.40.165,416_EXPERIMENT_PSYCHOPY_AU2220019_AU2220225,2024.2.4,59.97508634913347,2025-04-03 14h47.35.919655 +0530,
fear_lower_blur.jpg,f,21,3,3,None,0,,,3,3,21,3,122.6618991,,,,,,,,,,,,,,,,122.65668300000002,122.6618991,124.15634000000003,124.15634000000003,124.17247669999998,124.65587100000002,124.89032410000002,None,0,124.90853740000003,,,AR21,112,2025-04-03_14h46.40.165,416_EXPERIMENT_PSYCHOPY_AU2220019_AU2220225,2024.2.4,59.97508634913347,2025-04-03 14h47.35.919655 +0530,
surprise.jpg,s,22,4,3,None,0,,,3,4,22,1,124.90853740000003,,,,,,,,,,,,,,,,124.9041561,124.90853740000003,126.40594330000002,126.40594330000002,126.42278589999998,126.905314,127.14024709999998,None,0,127.15842139999998,,,AR21,112,2025-04-03_14h46.40.165,416_EXPERIMENT_PSYCHOPY_AU2220019_AU2220225,2024.2.4,59.97508634913347,2025-04-03 14h47.35.919655 +0530,
fear.jpg,f,23,5,3,None,0,,,3,5,23,0,127.15842139999998,,,,,,,,,,,,,,,,127.1541023,127.15842139999998,128.65648280000002,128.65648280000002,128.67353319999998,129.1565439,129.3907788,None,0,129.40916560000002,,,AR21,112,2025-04-03_14h46.40.165,416_EXPERIMENT_PSYCHOPY_AU2220019_AU2220225,2024.2.4,59.97508634913347,2025-04-03 14h47.35.919655 +0530,
fear.jpg,f,24,0,4,None,0,,,4,0,24,0,129.40916560000002,,,,,,,,,,,,,,,,129.4049275,129.40916560000002,130.90693869999998,130.90693869999998,130.9231996,131.406193,131.65525449999998,None,0,,,,AR21,112,2025-04-03_14h46.40.165,416_EXPERIMENT_PSYCHOPY_AU2220019_AU2220225,2024.2.4,59.97508634913347,2025-04-03 14h47.35.919655 +0530,
fear_upper_blur.jpg,f,25,1,4,None,0,,,4,1,25,2,131.67257859999998,,,,,,,,,,,,,,,,131.66871030000001,131.67257859999998,133.1569029,133.1569029,133.1731725,133.65607930000002,133.8913593,None,0,133.9105531,,,AR21,112,2025-04-03_14h46.40.165,416_EXPERIMENT_PSYCHOPY_AU2220019_AU2220225,2024.2.4,59.97508634913347,2025-04-03 14h47.35.919655 +0530,
fear_lower_blur.jpg,f,26,2,4,None,0,,,4,2,26,3,133.9105531,,,,,,,,,,,,,,,,133.90532199999998,133.9105531,135.4070811,135.4070811,135.4235902,135.9061761,136.14078120000002,None,0,136.1603597,,,AR21,112,2025-04-03_14h46.40.165,416_EXPERIMENT_PSYCHOPY_AU2220019_AU2220225,2024.2.4,59.97508634913347,2025-04-03 14h47.35.919655 +0530,
surprise.jpg,s,27,3,4,s,1,0.6704635000000394,None,4,3,27,1,136.1603597,,,,,,,,,,,,,,,,136.15535709999997,136.1603597,137.6566581,137.6566581,137.67335590000002,138.1568528,138.3418955,s,1,,0.6704635000000394,None,AR21,112,2025-04-03_14h46.40.165,416_EXPERIMENT_PSYCHOPY_AU2220019_AU2220225,2024.2.4,59.97508634913347,2025-04-03 14h47.35.919655 +0530,
surprise_upper_blur.jpg,s,28,4,4,None,0,,,4,4,28,4,138.36104509999998,,,,,,,,,,,,,,,,138.3557754,138.36104509999998,139.8569168,139.8569168,139.8733673,140.3562148,140.591259,None,0,140.6098127,,,AR21,112,2025-04-03_14h46.40.165,416_EXPERIMENT_PSYCHOPY_AU2220019_AU2220225,2024.2.4,59.97508634913347,2025-04-03 14h47.35.919655 +0530,
surprise_lower_blur.jpg,s,29,5,4,s,1,0.4830861000000368,None,4,5,29,5,140.6098127,,,,,,,,,,,,,,,,140.6052562,140.6098127,142.1069421,142.1069421,142.1237359,142.61190810000002,142.5931844,s,1,,0.4830861000000368,None,AR21,112,2025-04-03_14h46.40.165,416_EXPERIMENT_PSYCHOPY_AU2220019_AU2220225,2024.2.4,59.97508634913347,2025-04-03 14h47.35.919655 +0530,
surprise_lower_blur.jpg,s,30,0,5,None,0,,,5,0,30,5,142.61190810000002,,,,,,,,,,,,,,,,142.60666419999998,142.61190810000002,144.1069998,144.1069998,144.12252370000002,144.6064286,144.84105459999998,None,0,144.8589671,,,AR21,112,2025-04-03_14h46.40.165,416_EXPERIMENT_PSYCHOPY_AU2220019_AU2220225,2024.2.4,59.97508634913347,2025-04-03 14h47.35.919655 +0530,
fear_lower_blur.jpg,f,31,1,5,None,0,,,5,1,31,3,144.8589671,,,,,,,,,,,,,,,,144.85470519999998,144.8589671,146.3567169,146.3567169,146.3732626,146.856307,147.0908256,None,0,147.10912290000002,,,AR21,112,2025-04-03_14h46.40.165,416_EXPERIMENT_PSYCHOPY_AU2220019_AU2220225,2024.2.4,59.97508634913347,2025-04-03 14h47.35.919655 +0530,
surprise_upper_blur.jpg,s,32,2,5,s,1,0.6760318000000325,None,5,2,32,4,147.10912290000002,,,,,,,,,,,,,,,,147.104721,147.10912290000002,148.6070498,148.6070498,148.62361460000002,149.1067735,149.2917704,s,1,,0.6760318000000325,None,AR21,112,2025-04-03_14h46.40.165,416_EXPERIMENT_PSYCHOPY_AU2220019_AU2220225,2024.2.4,59.97508634913347,2025-04-03 14h47.35.919655 +0530,
fear.jpg,f,33,3,5,f,1,0.6077737999999613,None,5,3,33,0,149.31265770000002,,,,,,,,,,,,,,,,149.30706849999999,149.31265770000002,150.80696279999998,150.80696279999998,150.82322860000002,151.30633100000003,151.42492339999998,f,1,,0.6077737999999613,None,AR21,112,2025-04-03_14h46.40.165,416_EXPERIMENT_PSYCHOPY_AU2220019_AU2220225,2024.2.4,59.97508634913347,2025-04-03 14h47.35.919655 +0530,
surprise.jpg,s,34,4,5,None,0,,,5,4,34,1,151.4443858,,,,,,,,,,,,,,,,151.43930220000001,151.4443858,152.9392963,152.9392963,152.9563125,153.43962589999998,153.6744368,None,0,153.6932416,,,AR21,112,2025-04-03_14h46.40.165,416_EXPERIMENT_PSYCHOPY_AU2220019_AU2220225,2024.2.4,59.97508634913347,2025-04-03 14h47.35.919655 +0530,
fear_upper_blur.jpg,f,35,5,5,None,0,,,5,5,35,2,153.6932416,,,,,,,,,,,,,,,,153.68833650000002,153.6932416,155.19023330000002,155.19023330000002,155.20705289999998,155.68933159999997,155.92405390000002,None,0,155.94465090000003,,,AR21,112,2025-04-03_14h46.40.165,416_EXPERIMENT_PSYCHOPY_AU2220019_AU2220225,2024.2.4,59.97508634913347,2025-04-03 14h47.35.919655 +0530,
fear.jpg,f,36,0,6,f,1,0.6330586999999923,None,6,0,36,0,155.94465090000003,,,,,,,,,,,,,,,,155.9393049,155.94465090000003,157.4398441,157.4398441,157.45647549999998,157.93896579999998,158.07633380000001,f,1,,0.6330586999999923,None,AR21,112,2025-04-03_14h46.40.165,416_EXPERIMENT_PSYCHOPY_AU2220019_AU2220225,2024.2.4,59.97508634913347,2025-04-03 14h47.35.919655 +0530,
surprise_upper_blur.jpg,s,37,1,6,s,1,0.642018099999973,None,6,1,37,4,158.0937676,,,,,,,,,,,,,,,,158.089257,158.0937676,159.5894537,159.5894537,159.6062289,160.089169,160.24120560000003,s,1,,0.642018099999973,None,AR21,112,2025-04-03_14h46.40.165,416_EXPERIMENT_PSYCHOPY_AU2220019_AU2220225,2024.2.4,59.97508634913347,2025-04-03 14h47.35.919655 +0530,
surprise.jpg,s,38,2,6,None,0,,,6,2,38,1,160.2599044,,,,,,,,,,,,,,,,160.2548565,160.2599044,161.7566297,161.7566297,161.7728178,162.2557695,162.5062248,None,0,,,,AR21,112,2025-04-03_14h46.40.165,416_EXPERIMENT_PSYCHOPY_AU2220019_AU2220225,2024.2.4,59.97508634913347,2025-04-03 14h47.35.919655 +0530,
fear_lower_blur.jpg,f,39,3,6,f,1,0.5693560999999931,None,6,3,39,3,162.52350299999998,,,,,,,,,,,,,,,,162.5191702,162.52350299999998,164.00604719999998,164.00604719999998,164.02307820000001,164.50561940000003,164.5915773,f,1,,0.5693560999999931,None,AR21,112,2025-04-03_14h46.40.165,416_EXPERIMENT_PSYCHOPY_AU2220019_AU2220225,2024.2.4,59.97508634913347,2025-04-03 14h47.35.919655 +0530,
surprise_lower_blur.jpg,s,40,4,6,s,1,0.6713750999999775,None,6,4,40,5,164.609884,,,,,,,,,,,,,,,,164.60515519999998,164.609884,166.10590370000003,166.10590370000003,166.12242469999998,166.60540360000002,166.7917649,s,1,,0.6713750999999775,None,AR21,112,2025-04-03_14h46.40.165,416_EXPERIMENT_PSYCHOPY_AU2220019_AU2220225,2024.2.4,59.97508634913347,2025-04-03 14h47.35.919655 +0530,
fear_upper_blur.jpg,f,41,5,6,s,0,0.6875079999999798,None,6,5,41,2,166.81022090000002,,,,,,,,,,,,,,,,166.8057572,166.81022090000002,168.30594979999998,168.30594979999998,168.3235109,168.80586079999998,169.00788500000002,s,0,,0.6875079999999798,None,AR21,112,2025-04-03_14h46.40.165,416_EXPERIMENT_PSYCHOPY_AU2220019_AU2220225,2024.2.4,59.97508634913347,2025-04-03 14h47.35.919655 +0530,
fear_upper_blur.jpg,f,42,0,7,f,1,0.5377890999999977,None,7,0,42,2,169.02698060000003,,,,,,,,,,,,,,,,169.0216323,169.02698060000003,170.5227469,170.5227469,170.5393238,171.02247910000003,171.07459989999998,f,1,,0.5377890999999977,None,AR21,112,2025-04-03_14h46.40.165,416_EXPERIMENT_PSYCHOPY_AU2220019_AU2220225,2024.2.4,59.97508634913347,2025-04-03 14h47.35.919655 +0530,
fear.jpg,f,43,1,7,f,1,0.5098528999999985,None,7,1,43,0,171.0940638,,,,,,,,,,,,,,,,171.0889751,171.0940638,172.5898369,172.5898369,172.6056536,173.10485630000002,173.1064148,f,1,,0.5098528999999985,None,AR21,112,2025-04-03_14h46.40.165,416_EXPERIMENT_PSYCHOPY_AU2220019_AU2220225,2024.2.4,59.97508634913347,2025-04-03 14h47.35.919655 +0530,
surprise.jpg,s,44,2,7,None,0,,,7,2,44,1,173.12760039999998,,,,,,,,,,,,,,,,173.1230922,173.12760039999998,174.62279320000002,174.62279320000002,174.6392961,175.12215619999998,175.37235260000003,None,0,,,,AR21,112,2025-04-03_14h46.40.165,416_EXPERIMENT_PSYCHOPY_AU2220019_AU2220225,2024.2.4,59.97508634913347,2025-04-03 14h47.35.919655 +0530,
fear_lower_blur.jpg,f,45,3,7,None,0,,,7,3,45,3,175.3892125,,,,,,,,,,,,,,,,175.38534760000002,175.3892125,176.85623999999999,176.85623999999999,176.88964330000002,177.3554761,177.58947250000003,None,0,177.60623990000002,,,AR21,112,2025-04-03_14h46.40.165,416_EXPERIMENT_PSYCHOPY_AU2220019_AU2220225,2024.2.4,59.97508634913347,2025-04-03 14h47.35.919655 +0530,
surprise_upper_blur.jpg,s,46,4,7,s,1,0.5491061000000172,None,7,4,46,4,177.60623990000002,,,,,,,,,,,,,,,,177.60261260000001,177.62158509999998,179.10675310000002,179.10675310000002,179.12331120000002,179.60562919999998,179.6597702,s,1,,0.5491061000000172,None,AR21,112,2025-04-03_14h46.40.165,416_EXPERIMENT_PSYCHOPY_AU2220019_AU2220225,2024.2.4,59.97508634913347,2025-04-03 14h47.35.919655 +0530,
surprise_lower_blur.jpg,s,47,5,7,None,0,,,7,5,47,5,179.67794,,,,,,,,,,,,,,,,179.6732686,179.67794,181.172833,181.172833,181.1892639,181.67234340000002,181.90752369999998,None,0,181.92618180000002,,,AR21,112,2025-04-03_14h46.40.165,416_EXPERIMENT_PSYCHOPY_AU2220019_AU2220225,2024.2.4,59.97508634913347,2025-04-03 14h47.35.919655 +0530,
surprise.jpg,s,48,0,8,None,0,,,8,0,48,1,181.92618180000002,,,,,,,,,,,,,,,,181.92183409999998,181.92618180000002,183.42274840000002,183.42274840000002,183.43902849999998,183.92285009999998,184.1574265,None,0,184.17709549999998,,,AR21,112,2025-04-03_14h46.40.165,416_EXPERIMENT_PSYCHOPY_AU2220019_AU2220225,2024.2.4,59.97508634913347,2025-04-03 14h47.35.919655 +0530,
surprise_upper_blur.jpg,s,49,1,8,s,1,0.6204711999999972,None,8,1,49,4,184.17709549999998,,,,,,,,,,,,,,,,184.17178650000002,184.17709549999998,185.67356300000003,185.67356300000003,185.6895155,186.1724386,186.30808520000002,s,1,,0.6204711999999972,None,AR21,112,2025-04-03_14h46.40.165,416_EXPERIMENT_PSYCHOPY_AU2220019_AU2220225,2024.2.4,59.97508634913347,2025-04-03 14h47.35.919655 +0530,
fear_lower_blur.jpg,f,50,2,8,f,1,0.6395045000000437,None,8,2,50,3,186.3263274,,,,,,,,,,,,,,,,186.32121279999998,186.3263274,187.8230933,187.8230933,187.83962010000002,188.3221419,188.47435349999998,f,1,,0.6395045000000437,None,AR21,112,2025-04-03_14h46.40.165,416_EXPERIMENT_PSYCHOPY_AU2220019_AU2220225,2024.2.4,59.97508634913347,2025-04-03 14h47.35.919655 +0530,
fear.jpg,f,51,3,8,None,0,,,8,3,51,0,188.49335770000002,,,,,,,,,,,,,,,,188.4881864,188.49335770000002,189.98950499999998,189.98950499999998,190.006428,190.48862190000003,190.7244223,None,0,190.7419184,,,AR21,112,2025-04-03_14h46.40.165,416_EXPERIMENT_PSYCHOPY_AU2220019_AU2220225,2024.2.4,59.97508634913347,2025-04-03 14h47.35.919655 +0530,
fear_upper_blur.jpg,f,52,4,8,None,0,,,8,4,52,2,190.7419184,,,,,,,,,,,,,,,,190.737767,190.7419184,192.2400873,192.2400873,192.25641140000002,192.73950320000003,192.97563900000003,None,0,193.01255419999998,,,AR21,112,2025-04-03_14h46.40.165,416_EXPERIMENT_PSYCHOPY_AU2220019_AU2220225,2024.2.4,59.97508634913347,2025-04-03 14h47.35.919655 +0530,
surprise_lower_blur.jpg,s,53,5,8,None,0,,,8,5,53,5,193.01255419999998,,,,,,,,,,,,,,,,193.004001,193.01255419999998,194.48976810000002,194.48976810000002,194.52393930000002,194.9890723,195.2247642,None,0,195.2426035,,,AR21,112,2025-04-03_14h46.40.165,416_EXPERIMENT_PSYCHOPY_AU2220019_AU2220225,2024.2.4,59.97508634913347,2025-04-03 14h47.35.919655 +0530,
fear_upper_blur.jpg,f,54,0,9,None,0,,,9,0,54,2,195.2426035,,,,,,,,,,,,,,,,195.2383111,195.2426035,196.7396912,196.7396912,196.75583079999998,197.24029750000003,197.4741476,None,0,197.4988054,,,AR21,112,2025-04-03_14h46.40.165,416_EXPERIMENT_PSYCHOPY_AU2220019_AU2220225,2024.2.4,59.97508634913347,2025-04-03 14h47.35.919655 +0530,
surprise_upper_blur.jpg,s,55,1,9,f,0,0.647571599999992,None,9,1,55,4,197.4988054,,,,,,,,,,,,,,,,197.49069519999998,197.4988054,198.9908968,198.9908968,199.00693880000003,199.4894308,199.64202759999998,f,0,,0.647571599999992,None,AR21,112,2025-04-03_14h46.40.165,416_EXPERIMENT_PSYCHOPY_AU2220019_AU2220225,2024.2.4,59.97508634913347,2025-04-03 14h47.35.919655 +0530,
surprise_lower_blur.jpg,s,56,2,9,s,1,0.3758674000000042,None,9,2,56,5,199.6765839,,,,,,,,,,,,,,,,199.6662461,199.6765839,201.1560899,201.1560899,201.1896267,,201.54558419999998,s,1,,0.3758674000000042,None,AR21,112,2025-04-03_14h46.40.165,416_EXPERIMENT_PSYCHOPY_AU2220019_AU2220225,2024.2.4,59.97508634913347,2025-04-03 14h47.35.919655 +0530,
fear.jpg,f,57,3,9,s,0,0.4180012999999576,None,9,3,57,0,201.5837327,,,,,,,,,,,,,,,,201.57312420000002,201.5837327,203.05611080000003,203.05611080000003,203.08936359999998,,203.49148720000002,s,0,,0.4180012999999576,None,AR21,112,2025-04-03_14h46.40.165,416_EXPERIMENT_PSYCHOPY_AU2220019_AU2220225,2024.2.4,59.97508634913347,2025-04-03 14h47.35.919655 +0530,
surprise.jpg,s,58,4,9,s,1,0.4895799000000238,None,9,4,58,1,203.5097858,,,,,,,,,,,,,,,,203.50540199999998,203.5097858,205.00670110000002,205.00670110000002,205.0240062,205.50510390000002,205.50747959999998,s,1,,0.4895799000000238,None,AR21,112,2025-04-03_14h46.40.165,416_EXPERIMENT_PSYCHOPY_AU2220019_AU2220225,2024.2.4,59.97508634913347,2025-04-03 14h47.35.919655 +0530,
fear_lower_blur.jpg,f,59,5,9,f,1,0.6682907999999657,None,9,5,59,3,205.5254841,,,,,,,,,,,,,,,,205.5206525,205.5254841,207.02271570000002,207.02271570000002,207.03927230000002,207.52279380000002,207.69809030000002,f,1,,0.6682907999999657,None,AR21,112,2025-04-03_14h46.40.165,416_EXPERIMENT_PSYCHOPY_AU2220019_AU2220225,2024.2.4,59.97508634913347,2025-04-03 14h47.35.919655 +0530,
fear_upper_blur.jpg,f,60,0,10,s,0,0.5161186000000271,None,10,0,60,2,207.7281,,,,,,,,,,,,,,,,207.72229539999998,207.7281,209.20685490000002,209.20685490000002,209.2406364,209.7066093,209.730969,s,0,,0.5161186000000271,None,AR21,112,2025-04-03_14h46.40.165,416_EXPERIMENT_PSYCHOPY_AU2220019_AU2220225,2024.2.4,59.97508634913347,2025-04-03 14h47.35.919655 +0530,
surprise_lower_blur.jpg,s,61,1,10,s,1,0.49781510000002527,None,10,1,61,5,209.76348629999998,,,,,,,,,,,,,,,,209.75808450000002,209.76348629999998,211.2396863,211.2396863,211.27377140000002,211.73846899999998,211.7409883,s,1,,0.49781510000002527,None,AR21,112,2025-04-03_14h46.40.165,416_EXPERIMENT_PSYCHOPY_AU2220019_AU2220225,2024.2.4,59.97508634913347,2025-04-03 14h47.35.919655 +0530,
fear_lower_blur.jpg,f,62,2,10,s,0,0.4840073000000302,None,10,2,62,3,211.75824780000002,,,,,,,,,,,,,,,,211.75361949999999,211.75824780000002,213.25628730000003,213.25628730000003,213.273179,213.77517559999998,213.74770900000001,s,0,,0.4840073000000302,None,AR21,112,2025-04-03_14h46.40.165,416_EXPERIMENT_PSYCHOPY_AU2220019_AU2220225,2024.2.4,59.97508634913347,2025-04-03 14h47.35.919655 +0530,
surprise.jpg,s,63,3,10,s,1,0.5932794999999942,None,10,3,63,1,213.77517559999998,,,,,,,,,,,,,,,,213.7674623,213.77517559999998,215.2568881,215.2568881,215.2902114,215.756,215.85817720000003,s,1,,0.5932794999999942,None,AR21,112,2025-04-03_14h46.40.165,416_EXPERIMENT_PSYCHOPY_AU2220019_AU2220225,2024.2.4,59.97508634913347,2025-04-03 14h47.35.919655 +0530,
surprise_upper_blur.jpg,s,64,4,10,None,0,,,10,4,64,4,215.87646350000003,,,,,,,,,,,,,,,,215.8716026,215.87646350000003,217.37331429999998,217.37331429999998,217.38960590000002,217.872554,218.11200979999998,None,0,218.1389005,,,AR21,112,2025-04-03_14h46.40.165,416_EXPERIMENT_PSYCHOPY_AU2220019_AU2220225,2024.2.4,59.97508634913347,2025-04-03 14h47.35.919655 +0530,
fear.jpg,f,65,5,10,s,0,0.6563652000000388,None,10,5,65,0,218.1389005,,,,,,,,,,,,,,,,218.1333949,218.1389005,219.62302400000002,219.62302400000002,219.6395858,220.12337850000003,220.29388409999999,s,0,,0.6563652000000388,None,AR21,112,2025-04-03_14h46.40.165,416_EXPERIMENT_PSYCHOPY_AU2220019_AU2220225,2024.2.4,59.97508634913347,2025-04-03 14h47.35.919655 +0530,
surprise.jpg,s,66,0,11,None,0,,,11,0,66,1,220.32209479999997,,,,,,,,,,,,,,,,220.3140749,220.32209479999997,221.80628270000003,221.80628270000003,221.82331910000002,222.30542469999997,222.5427923,None,0,222.58172929999998,,,AR21,112,2025-04-03_14h46.40.165,416_EXPERIMENT_PSYCHOPY_AU2220019_AU2220225,2024.2.4,59.97508634913347,2025-04-03 14h47.35.919655 +0530,
fear_lower_blur.jpg,f,67,1,11,None,0,,,11,1,67,3,222.58172929999998,,,,,,,,,,,,,,,,222.57338059999998,222.58172929999998,224.0561772,224.0561772,224.0892175,224.55542640000002,224.79044839999997,None,0,224.80842379999999,,,AR21,112,2025-04-03_14h46.40.165,416_EXPERIMENT_PSYCHOPY_AU2220019_AU2220225,2024.2.4,59.97508634913347,2025-04-03 14h47.35.919655 +0530,
fear_upper_blur.jpg,f,68,2,11,s,0,0.6555121000000099,None,11,2,68,2,224.80842379999999,,,,,,,,,,,,,,,,224.80423900000002,224.80842379999999,226.3068742,226.3068742,226.32284589999998,226.8056809,226.9744428,s,0,,0.6555121000000099,None,AR21,112,2025-04-03_14h46.40.165,416_EXPERIMENT_PSYCHOPY_AU2220019_AU2220225,2024.2.4,59.97508634913347,2025-04-03 14h47.35.919655 +0530,
surprise_upper_blur.jpg,s,69,3,11,None,0,,,11,3,69,4,227.01362459999999,,,,,,,,,,,,,,,,227.00194919999998,227.01362459999999,228.4900251,228.4900251,228.5237948,228.98915309999998,229.225542,None,0,229.2461501,,,AR21,112,2025-04-03_14h46.40.165,416_EXPERIMENT_PSYCHOPY_AU2220019_AU2220225,2024.2.4,59.97508634913347,2025-04-03 14h47.35.919655 +0530,
surprise_lower_blur.jpg,s,70,4,11,f,0,0.4930569999999648,None,11,4,70,5,229.2461501,,,,,,,,,,,,,,,,229.2413304,229.2461501,230.73977040000003,230.73977040000003,230.7562573,231.23968140000002,231.242261,f,0,,0.4930569999999648,None,AR21,112,2025-04-03_14h46.40.165,416_EXPERIMENT_PSYCHOPY_AU2220019_AU2220225,2024.2.4,59.97508634913347,2025-04-03 14h47.35.919655 +0530,
fear.jpg,f,71,5,11,None,0,,,11,5,71,0,231.26113460000002,,,,,,,,,,,,,,,,231.25630479999998,231.26113460000002,232.75659729999998,232.75659729999998,232.77361420000003,233.25569,233.50628450000002,None,0,,,,AR21,112,2025-04-03_14h46.40.165,416_EXPERIMENT_PSYCHOPY_AU2220019_AU2220225,2024.2.4,59.97508634913347,2025-04-03 14h47.35.919655 +0530,
surprise_upper_blur.jpg,s,72,0,12,None,0,,,12,0,72,4,233.5348814,,,,,,,,,,,,,,,,233.5274246,233.5348814,235.00619859999998,235.00619859999998,235.0392265,235.5063011,235.74194730000002,None,0,235.7705372,,,AR21,112,2025-04-03_14h46.40.165,416_EXPERIMENT_PSYCHOPY_AU2220019_AU2220225,2024.2.4,59.97508634913347,2025-04-03 14h47.35.919655 +0530,
fear.jpg,f,73,1,12,None,0,,,12,1,73,0,235.7705372,,,,,,,,,,,,,,,,235.7634924,235.7705372,237.2563931,237.2563931,237.2732746,237.75633480000002,237.9925013,None,0,238.0292815,,,AR21,112,2025-04-03_14h46.40.165,416_EXPERIMENT_PSYCHOPY_AU2220019_AU2220225,2024.2.4,59.97508634913347,2025-04-03 14h47.35.919655 +0530,
surprise.jpg,s,74,2,12,s,1,0.6066114999999854,None,12,2,74,1,238.0292815,,,,,,,,,,,,,,,,238.0210509,238.0292815,239.50655500000002,239.50655500000002,239.53966140000003,240.00578199999998,240.12378930000003,s,1,,0.6066114999999854,None,AR21,112,2025-04-03_14h46.40.165,416_EXPERIMENT_PSYCHOPY_AU2220019_AU2220225,2024.2.4,59.97508634913347,2025-04-03 14h47.35.919655 +0530,
fear_upper_blur.jpg,f,75,3,12,s,0,0.6700215999999841,None,12,3,75,2,240.13862830000002,,,,,,,,,,,,,,,,240.13323599999998,240.13862830000002,241.6400156,241.6400156,241.6400156,242.1399964,242.325114,s,0,,0.6700215999999841,None,AR21,112,2025-04-03_14h46.40.165,416_EXPERIMENT_PSYCHOPY_AU2220019_AU2220225,2024.2.4,59.97508634913347,2025-04-03 14h47.35.919655 +0530,
fear_lower_blur.jpg,f,76,4,12,s,0,0.6613575999999739,None,12,4,76,3,242.34375980000002,,,,,,,,,,,,,,,,242.3389208,242.34375980000002,243.84015079999998,243.84015079999998,243.8566923,244.33968560000002,244.50764970000003,s,0,,0.6613575999999739,None,AR21,112,2025-04-03_14h46.40.165,416_EXPERIMENT_PSYCHOPY_AU2220019_AU2220225,2024.2.4,59.97508634913347,2025-04-03 14h47.35.919655 +0530,
surprise_lower_blur.jpg,s,77,5,12,s,1,0.6399812999999881,None,12,5,77,5,244.5241688,,,,,,,,,,,,,,,,244.5190052,244.5241688,246.02325670000002,246.02325670000002,246.0406116,246.5232569,246.67717259999998,s,1,,0.6399812999999881,None,AR21,112,2025-04-03_14h46.40.165,416_EXPERIMENT_PSYCHOPY_AU2220019_AU2220225,2024.2.4,59.97508634913347,2025-04-03 14h47.35.919655 +0530,
surprise_lower_blur.jpg,s,78,0,13,None,0,,,13,0,78,5,246.71370220000003,,,,,,,,,,,,,,,,246.7039194,246.71370220000003,248.18988320000003,248.18988320000003,248.2235428,248.6889419,248.92525179999998,None,0,248.94361999999998,,,AR21,112,2025-04-03_14h46.40.165,416_EXPERIMENT_PSYCHOPY_AU2220019_AU2220225,2024.2.4,59.97508634913347,2025-04-03 14h47.35.919655 +0530,
fear.jpg,f,79,1,13,None,0,,,13,1,79,0,248.94361999999998,,,,,,,,,,,,,,,,248.9394831,248.94361999999998,250.43971910000002,250.43971910000002,250.45647979999998,250.9391778,251.17493700000003,None,0,251.2075927,,,AR21,112,2025-04-03_14h46.40.165,416_EXPERIMENT_PSYCHOPY_AU2220019_AU2220225,2024.2.4,59.97508634913347,2025-04-03 14h47.35.919655 +0530,
fear_upper_blur.jpg,f,80,2,13,None,0,,,13,2,80,2,251.2075927,,,,,,,,,,,,,,,,251.20010219999998,251.2075927,252.68973330000003,252.68973330000003,252.72291470000002,253.18952750000003,253.42530209999998,None,0,253.4587306,,,AR21,112,2025-04-03_14h46.40.165,416_EXPERIMENT_PSYCHOPY_AU2220019_AU2220225,2024.2.4,59.97508634913347,2025-04-03 14h47.35.919655 +0530,
surprise_upper_blur.jpg,s,81,3,13,s,1,0.5266584999999964,None,13,3,81,4,253.4587306,,,,,,,,,,,,,,,,253.4509123,253.4587306,254.9392313,254.9392313,254.9719853,255.4394703,255.47734979999998,s,1,,0.5266584999999964,None,AR21,112,2025-04-03_14h46.40.165,416_EXPERIMENT_PSYCHOPY_AU2220019_AU2220225,2024.2.4,59.97508634913347,2025-04-03 14h47.35.919655 +0530,
surprise.jpg,s,82,4,13,s,1,0.5167979000000287,None,13,4,82,1,255.5113908,,,,,,,,,,,,,,,,255.50309910000001,255.5113908,256.98991579999995,256.98991579999995,257.0231579,257.489507,257.51356020000003,s,1,,0.5167979000000287,None,AR21,112,2025-04-03_14h46.40.165,416_EXPERIMENT_PSYCHOPY_AU2220019_AU2220225,2024.2.4,59.97508634913347,2025-04-03 14h47.35.919655 +0530,
fear_lower_blur.jpg,f,83,5,13,None,0,,,13,5,83,3,257.54740130000005,,,,,,,,,,,,,,,,257.53789029999996,257.54740130000005,259.02361440000004,259.02361440000004,259.0562135,259.52256420000003,259.75888799999996,None,0,259.7913416,,,AR21,112,2025-04-03_14h46.40.165,416_EXPERIMENT_PSYCHOPY_AU2220019_AU2220225,2024.2.4,59.97508634913347,2025-04-03 14h47.35.919655 +0530,
fear_upper_blur.jpg,f,84,0,14,None,0,,,14,0,84,2,259.7913416,,,,,,,,,,,,,,,,259.78353690000006,259.7913416,261.27334210000004,261.27334210000004,261.3065478,261.7726119,262.0083049,None,0,262.03862949999996,,,AR21,112,2025-04-03_14h46.40.165,416_EXPERIMENT_PSYCHOPY_AU2220019_AU2220225,2024.2.4,59.97508634913347,2025-04-03 14h47.35.919655 +0530,
fear_lower_blur.jpg,f,85,1,14,None,0,,,14,1,85,3,262.03862949999996,,,,,,,,,,,,,,,,262.03156090000004,262.03862949999996,263.52308960000005,263.52308960000005,263.53957249999996,264.0226259,264.2587585,None,0,264.2923756,,,AR21,112,2025-04-03_14h46.40.165,416_EXPERIMENT_PSYCHOPY_AU2220019_AU2220225,2024.2.4,59.97508634913347,2025-04-03 14h47.35.919655 +0530,
fear.jpg,f,86,2,14,f,1,0.5646414000000277,None,14,2,86,0,264.2923756,,,,,,,,,,,,,,,,264.2844844,264.2923756,265.77294300000005,265.77294300000005,265.80649430000005,266.2730546,266.3422296,f,1,,0.5646414000000277,None,AR21,112,2025-04-03_14h46.40.165,416_EXPERIMENT_PSYCHOPY_AU2220019_AU2220225,2024.2.4,59.97508634913347,2025-04-03 14h47.35.919655 +0530,
surprise_upper_blur.jpg,s,87,3,14,s,1,0.6126381999999921,None,14,3,87,4,266.3605391,,,,,,,,,,,,,,,,266.35549820000006,266.3605391,267.85710029999996,267.85710029999996,267.87358240000003,268.3562838,268.4772749,s,1,,0.6126381999999921,None,AR21,112,2025-04-03_14h46.40.165,416_EXPERIMENT_PSYCHOPY_AU2220019_AU2220225,2024.2.4,59.97508634913347,2025-04-03 14h47.35.919655 +0530,
surprise.jpg,s,88,4,14,None,0,,,14,4,88,1,268.50319460000003,,,,,,,,,,,,,,,,268.4976265,268.50319460000003,269.9899802,269.9899802,270.0069313,270.4897294,270.72665359999996,None,0,270.76247739999997,,,AR21,112,2025-04-03_14h46.40.165,416_EXPERIMENT_PSYCHOPY_AU2220019_AU2220225,2024.2.4,59.97508634913347,2025-04-03 14h47.35.919655 +0530,
surprise_lower_blur.jpg,s,89,5,14,None,0,,,14,5,89,5,270.76247739999997,,,,,,,,,,,,,,,,270.75395849999995,270.76247739999997,272.23994170000003,272.23994170000003,272.27249589999997,272.73919950000004,272.9891408,None,0,,,,AR21,112,2025-04-03_14h46.40.165,416_EXPERIMENT_PSYCHOPY_AU2220019_AU2220225,2024.2.4,59.97508634913347,2025-04-03 14h47.35.919655 +0530,
fear.jpg,f,90,0,15,f,1,0.6634924999999612,None,15,0,90,0,273.0059926,,,,,,,,,,,,,,,,273.00164629999995,273.0059926,274.49003789999995,274.49003789999995,274.5066286,274.98910880000005,275.15867060000005,f,1,,0.6634924999999612,None,AR21,112,2025-04-03_14h46.40.165,416_EXPERIMENT_PSYCHOPY_AU2220019_AU2220225,2024.2.4,59.97508634913347,2025-04-03 14h47.35.919655 +0530,
fear_upper_blur.jpg,f,91,1,15,None,0,,,15,1,91,2,275.1772214,,,,,,,,,,,,,,,,275.17211499999996,275.1772214,276.6732131,276.6732131,276.69055019999996,277.1725792,277.4073039,None,0,277.42432540000004,,,AR21,112,2025-04-03_14h46.40.165,416_EXPERIMENT_PSYCHOPY_AU2220019_AU2220225,2024.2.4,59.97508634913347,2025-04-03 14h47.35.919655 +0530,
surprise_upper_blur.jpg,s,92,2,15,s,1,0.6357761000000437,None,15,2,92,4,277.42432540000004,,,,,,,,,,,,,,,,277.42035669999996,277.42432540000004,278.92295790000003,278.92295790000003,278.9394503,279.4227511,279.57500089999996,s,1,,0.6357761000000437,None,AR21,112,2025-04-03_14h46.40.165,416_EXPERIMENT_PSYCHOPY_AU2220019_AU2220225,2024.2.4,59.97508634913347,2025-04-03 14h47.35.919655 +0530,
fear_lower_blur.jpg,f,93,3,15,None,0,,,15,3,93,3,279.5928238,,,,,,,,,,,,,,,,279.5881773,279.5928238,281.0898518,281.0898518,281.1062157,281.58900800000004,281.8248456,None,0,281.86404159999995,,,AR21,112,2025-04-03_14h46.40.165,416_EXPERIMENT_PSYCHOPY_AU2220019_AU2220225,2024.2.4,59.97508634913347,2025-04-03 14h47.35.919655 +0530,
surprise.jpg,s,94,4,15,None,0,,,15,4,94,1,281.86404159999995,,,,,,,,,,,,,,,,281.8545123,281.86404159999995,283.33960690000004,283.33960690000004,283.3727388,283.83949989999996,284.07511550000004,None,0,284.1104296,,,AR21,112,2025-04-03_14h46.40.165,416_EXPERIMENT_PSYCHOPY_AU2220019_AU2220225,2024.2.4,59.97508634913347,2025-04-03 14h47.35.919655 +0530,
surprise_lower_blur.jpg,s,95,5,15,None,0,,,15,5,95,5,284.1104296,,,,,,,,,,,,,,,,284.10195469999996,284.1104296,285.5894472,285.5894472,285.6230313,286.0893307,286.32587450000005,None,0,286.36036019999995,,,AR21,112,2025-04-03_14h46.40.165,416_EXPERIMENT_PSYCHOPY_AU2220019_AU2220225,2024.2.4,59.97508634913347,2025-04-03 14h47.35.919655 +0530,
surprise_lower_blur.jpg,s,96,0,16,None,0,,,16,0,96,5,286.36036019999995,,,,,,,,,,,,,,,,286.35244580000005,286.36036019999995,287.83988939999995,287.83988939999995,287.8726604,288.33866420000004,288.58886600000005,None,0,,,,AR21,112,2025-04-03_14h46.40.165,416_EXPERIMENT_PSYCHOPY_AU2220019_AU2220225,2024.2.4,59.97508634913347,2025-04-03 14h47.35.919655 +0530,
fear_upper_blur.jpg,f,97,1,16,None,0,,,16,1,97,2,288.6052883,,,,,,,,,,,,,,,,288.59830250000005,288.6052883,290.08894799999996,290.08894799999996,290.1056899,290.58844869999996,290.82220329999996,None,0,290.8387888,,,AR21,112,2025-04-03_14h46.40.165,416_EXPERIMENT_PSYCHOPY_AU2220019_AU2220225,2024.2.4,59.97508634913347,2025-04-03 14h47.35.919655 +0530,
surprise_upper_blur.jpg,s,98,2,16,None,0,,,16,2,98,4,290.8387888,,,,,,,,,,,,,,,,290.83218969999996,290.8387888,292.33895989999996,292.33895989999996,292.33895989999996,292.83840799999996,293.0739959,None,0,293.09103070000003,,,AR21,112,2025-04-03_14h46.40.165,416_EXPERIMENT_PSYCHOPY_AU2220019_AU2220225,2024.2.4,59.97508634913347,2025-04-03 14h47.35.919655 +0530,
fear_lower_blur.jpg,f,99,3,16,None,0,,,16,3,99,3,293.09103070000003,,,,,,,,,,,,,,,,293.0869609,293.09103070000003,294.5894532,294.5894532,294.6059503,295.08848609999995,295.33845429999997,None,0,,,,AR21,112,2025-04-03_14h46.40.165,416_EXPERIMENT_PSYCHOPY_AU2220019_AU2220225,2024.2.4,59.97508634913347,2025-04-03 14h47.35.919655 +0530,
surprise.jpg,s,100,4,16,None,0,,,16,4,100,1,295.35609339999996,,,,,,,,,,,,,,,,295.3517985,295.35609339999996,296.8394614,296.8394614,296.85618780000004,297.33958270000005,297.5742954,None,0,297.59389050000004,,,AR21,112,2025-04-03_14h46.40.165,416_EXPERIMENT_PSYCHOPY_AU2220019_AU2220225,2024.2.4,59.97508634913347,2025-04-03 14h47.35.919655 +0530,
fear.jpg,f,101,5,16,None,0,,,16,5,101,0,297.59389050000004,,,,,,,,,,,,,,,,297.58954400000005,297.59389050000004,299.08975969999995,299.08975969999995,299.106091,299.58900040000003,299.82484939999995,None,0,299.84282010000004,,,AR21,112,2025-04-03_14h46.40.165,416_EXPERIMENT_PSYCHOPY_AU2220019_AU2220225,2024.2.4,59.97508634913347,2025-04-03 14h47.35.919655 +0530,
fear.jpg,f,102,0,17,f,1,0.7067372999999861,None,17,0,102,0,299.84282010000004,,,,,,,,,,,,,,,,299.83895070000005,299.84282010000004,301.3395203,301.3395203,301.3559252,301.8395097,302.0582038,f,1,,0.7067372999999861,None,AR21,112,2025-04-03_14h46.40.165,416_EXPERIMENT_PSYCHOPY_AU2220019_AU2220225,2024.2.4,59.97508634913347,2025-04-03 14h47.35.919655 +0530,
fear_lower_blur.jpg,f,103,1,17,s,0,0.5812799000000268,None,17,1,103,3,302.07726230000003,,,,,,,,,,,,,,,,302.07161210000004,302.07726230000003,303.5732809,303.5732809,303.58969609999997,304.0717337,304.1577397,s,0,,0.5812799000000268,None,AR21,112,2025-04-03_14h46.40.165,416_EXPERIMENT_PSYCHOPY_AU2220019_AU2220225,2024.2.4,59.97508634913347,2025-04-03 14h47.35.919655 +0530,
fear_upper_blur.jpg,f,104,2,17,s,0,0.6110958000000437,None,17,2,104,2,304.1752997,,,,,,,,,,,,,,,,304.17087219999996,304.1752997,305.67300709999995,305.67300709999995,305.6894681,306.17257529999995,306.2906653,s,0,,0.6110958000000437,None,AR21,112,2025-04-03_14h46.40.165,416_EXPERIMENT_PSYCHOPY_AU2220019_AU2220225,2024.2.4,59.97508634913347,2025-04-03 14h47.35.919655 +0530,
surprise.jpg,s,105,3,17,s,1,0.7163843000000725,None,17,3,105,1,306.3090948,,,,,,,,,,,,,,,,306.3041869,306.3090948,307.80702959999996,307.80702959999996,307.8230701,308.3056038,308.526709,s,1,,0.7163843000000725,None,AR21,112,2025-04-03_14h46.40.165,416_EXPERIMENT_PSYCHOPY_AU2220019_AU2220225,2024.2.4,59.97508634913347,2025-04-03 14h47.35.919655 +0530,
surprise_lower_blur.jpg,s,106,4,17,None,0,,,17,4,106,5,308.5460418,,,,,,,,,,,,,,,,308.54076169999996,308.5460418,310.03962079999997,310.03962079999997,310.0561232,310.53873710000005,310.7897851,None,0,,,,AR21,112,2025-04-03_14h46.40.165,416_EXPERIMENT_PSYCHOPY_AU2220019_AU2220225,2024.2.4,59.97508634913347,2025-04-03 14h47.35.919655 +0530,
surprise_upper_blur.jpg,s,107,5,17,None,0,,,17,5,107,4,310.8076096,,,,,,,,,,,,,,,,310.80308390000005,310.8076096,312.2901501,312.2901501,312.30653340000003,312.78932870000006,313.04036870000004,None,0,,,,AR21,112,2025-04-03_14h46.40.165,416_EXPERIMENT_PSYCHOPY_AU2220019_AU2220225,2024.2.4,59.97508634913347,2025-04-03 14h47.35.919655 +0530,
surprise.jpg,s,108,0,18,None,0,,,18,0,108,1,313.05941310000003,,,,,,,,,,,,,,,,313.05503120000003,313.05941310000003,314.53979960000004,314.53979960000004,314.57290250000005,315.03866389999996,315.28970400000003,None,0,,,,AR21,112,2025-04-03_14h46.40.165,416_EXPERIMENT_PSYCHOPY_AU2220019_AU2220225,2024.2.4,59.97508634913347,2025-04-03 14h47.35.919655 +0530,
fear_lower_blur.jpg,f,109,1,18,None,0,,,18,1,109,3,315.30757789999996,,,,,,,,,,,,,,,,315.3030059,315.30757789999996,316.78935920000004,316.78935920000004,316.82261489999996,317.2887621,317.52514040000005,None,0,317.5433709,,,AR21,112,2025-04-03_14h46.40.165,416_EXPERIMENT_PSYCHOPY_AU2220019_AU2220225,2024.2.4,59.97508634913347,2025-04-03 14h47.35.919655 +0530,
surprise_upper_blur.jpg,s,110,2,18,s,1,0.5614262000000281,None,18,2,110,4,317.5433709,,,,,,,,,,,,,,,,317.5385897,317.5433709,319.03954780000004,319.03954780000004,319.05611080000006,319.53958580000005,319.6073711,s,1,,0.5614262000000281,None,AR21,112,2025-04-03_14h46.40.165,416_EXPERIMENT_PSYCHOPY_AU2220019_AU2220225,2024.2.4,59.97508634913347,2025-04-03 14h47.35.919655 +0530,
fear.jpg,f,111,3,18,None,0,,,18,3,111,0,319.62625990000004,,,,,,,,,,,,,,,,319.6212424,319.62625990000004,321.12359189999995,321.12359189999995,321.1394662,321.6222524,321.8578586,None,0,321.8757558,,,AR21,112,2025-04-03_14h46.40.165,416_EXPERIMENT_PSYCHOPY_AU2220019_AU2220225,2024.2.4,59.97508634913347,2025-04-03 14h47.35.919655 +0530,
surprise_lower_blur.jpg,s,112,4,18,s,1,0.6798859000000448,None,18,4,112,5,321.8757558,,,,,,,,,,,,,,,,321.87178029999995,321.8757558,323.3723383,323.3723383,323.3892657,323.8723563,324.05738640000004,s,1,,0.6798859000000448,None,AR21,112,2025-04-03_14h46.40.165,416_EXPERIMENT_PSYCHOPY_AU2220019_AU2220225,2024.2.4,59.97508634913347,2025-04-03 14h47.35.919655 +0530,
fear_upper_blur.jpg,f,113,5,18,s,0,0.6916658000000098,None,18,5,113,2,324.07495070000004,,,,,,,,,,,,,,,,324.0704577,324.07495070000004,325.57319659999996,325.57319659999996,325.5892777,326.0724464,326.27470000000005,s,0,,0.6916658000000098,None,AR21,112,2025-04-03_14h46.40.165,416_EXPERIMENT_PSYCHOPY_AU2220019_AU2220225,2024.2.4,59.97508634913347,2025-04-03 14h47.35.919655 +0530,
fear.jpg,f,114,0,19,s,0,0.6452075000000832,None,19,0,114,0,326.29456489999995,,,,,,,,,,,,,,,,326.28954039999996,326.29456489999995,327.78945880000003,327.78945880000003,327.80567410000003,328.2891813,328.44002250000005,s,0,,0.6452075000000832,None,AR21,112,2025-04-03_14h46.40.165,416_EXPERIMENT_PSYCHOPY_AU2220019_AU2220225,2024.2.4,59.97508634913347,2025-04-03 14h47.35.919655 +0530,
surprise_lower_blur.jpg,s,115,1,19,None,0,,,19,1,115,5,328.45720029999995,,,,,,,,,,,,,,,,328.4526423,328.45720029999995,329.9395611,329.9395611,329.955971,330.43908510000006,330.67439090000005,None,0,330.69178239999997,,,AR21,112,2025-04-03_14h46.40.165,416_EXPERIMENT_PSYCHOPY_AU2220019_AU2220225,2024.2.4,59.97508634913347,2025-04-03 14h47.35.919655 +0530,
surprise_upper_blur.jpg,s,116,2,19,s,1,0.5956189999999424,None,19,2,116,4,330.69178239999997,,,,,,,,,,,,,,,,330.68793459999995,330.69178239999997,332.2058448,332.2058448,332.2058448,332.7056446,332.8076363,s,1,,0.5956189999999424,None,AR21,112,2025-04-03_14h46.40.165,416_EXPERIMENT_PSYCHOPY_AU2220019_AU2220225,2024.2.4,59.97508634913347,2025-04-03 14h47.35.919655 +0530,
fear_upper_blur.jpg,f,117,3,19,None,0,,,19,3,117,2,332.8261543,,,,,,,,,,,,,,,,332.8212373,332.8261543,334.322863,334.322863,334.3392603,334.82241899999997,335.0574566,None,0,335.07710599999996,,,AR21,112,2025-04-03_14h46.40.165,416_EXPERIMENT_PSYCHOPY_AU2220019_AU2220225,2024.2.4,59.97508634913347,2025-04-03 14h47.35.919655 +0530,
surprise.jpg,s,118,4,19,None,0,,,19,4,118,1,335.07710599999996,,,,,,,,,,,,,,,,335.0728256,335.07710599999996,336.57275489999995,336.57275489999995,336.5898346,337.07224729999996,337.30758460000004,None,0,337.32518589999995,,,AR21,112,2025-04-03_14h46.40.165,416_EXPERIMENT_PSYCHOPY_AU2220019_AU2220225,2024.2.4,59.97508634913347,2025-04-03 14h47.35.919655 +0530,
fear_lower_blur.jpg,f,119,5,19,None,0,,,19,5,119,3,337.32518589999995,,,,,,,,,,,,,,,,337.3210583,337.32518589999995,338.8225119,338.8225119,338.8394127,339.3227492,339.5573753,None,0,339.57272109999997,,,AR21,112,2025-04-03_14h46.40.165,416_EXPERIMENT_PSYCHOPY_AU2220019_AU2220225,2024.2.4,59.97508634913347,2025-04-03 14h47.35.919655 +0530,
