stimulus_image,correct_response,loop.thisRepN,loop.thisTrialN,loop.thisN,loop.thisIndex,thisRow.t,notes,guide.started,instructions.started,ins_resp.started,guide.stopped,ins_resp.keys,ins_resp.rt,ins_resp.duration,guide_2.started,ins_resp_2.started,instructions_2.started,guide_2.stopped,ins_resp_2.keys,ins_resp_2.rt,ins_resp_2.duration,trial.started,fixation.started,image.started,key_resp.started,fixation.stopped,trial.stopped,key_resp.keys,key_resp.corr,key_resp.rt,key_resp.duration,image.stopped,key_resp.stopped,participant,session,date,expName,psychopyVersion,frameRate,expStart,
,,,,,,,,0.004880800028331578,0.023223600001074374,0.023223600001074374,14.326387999928556,space,14.155134800006635,None,,,,,,,,,,,,,,,,,,,,D23,001,2025-03-29_19h49.00.996,416_EXPERIMENT_PSYCHOPY_AU2220019_AU2220225,2024.1.5,None,2025-03-29 19h49.19.255579 +0530,
,,,,,,,,,,,,,,,14.32641929993406,14.330691099981777,14.330691099981777,19.6081696000183,space,5.26090320001822,None,,,,,,,,,,,,,D23,001,2025-03-29_19h49.00.996,416_EXPERIMENT_PSYCHOPY_AU2220019_AU2220225,2024.1.5,None,2025-03-29 19h49.19.255579 +0530,
fear_lower_blur.jpg,f,0,0,0,3,19.723200600012206,,,,,,,,,,,,,,,,19.69511670002248,19.723200600012206,21.220779599971138,21.220779599971138,21.235069899936207,21.63796329998877,f,1,0.4128487000707537,None,,,D23,001,2025-03-29_19h49.00.996,416_EXPERIMENT_PSYCHOPY_AU2220019_AU2220225,2024.1.5,None,2025-03-29 19h49.19.255579 +0530,
fear_upper_blur.jpg,f,0,1,1,2,21.721553300041705,,,,,,,,,,,,,,,,21.682481299969368,21.721553300041705,23.186200299998745,23.186200299998745,23.23680890002288,23.70467390003614,s,0,0.5005362000083551,None,,,D23,001,2025-03-29_19h49.00.996,416_EXPERIMENT_PSYCHOPY_AU2220019_AU2220225,2024.1.5,None,2025-03-29 19h49.19.255579 +0530,
fear.jpg,f,0,2,2,0,23.792630000039935,,,,,,,,,,,,,,,,23.706351800006814,23.792630000039935,25.215552299981937,25.215552299981937,25.298724199994467,25.8014898999827,f,1,0.5835642999736592,None,,,D23,001,2025-03-29_19h49.00.996,416_EXPERIMENT_PSYCHOPY_AU2220019_AU2220225,2024.1.5,None,2025-03-29 19h49.19.255579 +0530,
surprise_upper_blur.jpg,s,0,3,3,4,25.87737619993277,,,,,,,,,,,,,,,,25.80271509999875,25.87737619993277,27.31524309993256,27.31524309993256,27.382969700032845,28.04979820002336,None,0,,,28.137774999951944,28.137774999951944,D23,001,2025-03-29_19h49.00.996,416_EXPERIMENT_PSYCHOPY_AU2220019_AU2220225,2024.1.5,None,2025-03-29 19h49.19.255579 +0530,
surprise.jpg,s,0,4,4,1,28.137774999951944,,,,,,,,,,,,,,,,28.051096900017,28.137774999951944,29.56388289993629,29.56388289993629,29.64686979993712,30.06537179998122,s,1,0.4919464000267908,None,,,D23,001,2025-03-29_19h49.00.996,416_EXPERIMENT_PSYCHOPY_AU2220019_AU2220225,2024.1.5,None,2025-03-29 19h49.19.255579 +0530,
surprise_lower_blur.jpg,s,0,5,5,5,30.14815100003034,,,,,,,,,,,,,,,,30.067038099979982,30.14815100003034,31.5779426000081,31.5779426000081,31.662080699927174,32.210380999953486,s,1,0.6194142000749707,None,,,D23,001,2025-03-29_19h49.00.996,416_EXPERIMENT_PSYCHOPY_AU2220019_AU2220225,2024.1.5,None,2025-03-29 19h49.19.255579 +0530,
surprise_upper_blur.jpg,s,1,0,6,4,32.225567399989814,,,,,,,,,,,,,,,,32.21128009993117,32.225567399989814,33.725372300017625,33.725372300017625,33.725372300017625,34.095234200009145,f,0,0.35960030008573085,None,,,D23,001,2025-03-29_19h49.00.996,416_EXPERIMENT_PSYCHOPY_AU2220019_AU2220225,2024.1.5,None,2025-03-29 19h49.19.255579 +0530,
surprise_lower_blur.jpg,s,1,1,7,5,34.11685879994184,,,,,,,,,,,,,,,,34.097049699979834,34.11685879994184,35.607063599978574,35.607063599978574,35.6237809000304,36.142688899999484,f,0,0.5210334999719635,None,,,D23,001,2025-03-29_19h49.00.996,416_EXPERIMENT_PSYCHOPY_AU2220019_AU2220225,2024.1.5,None,2025-03-29 19h49.19.255579 +0530,
surprise.jpg,s,1,2,8,1,36.16368490003515,,,,,,,,,,,,,,,,36.14432840002701,36.16368490003515,37.65519810002297,37.65519810002297,37.67277289996855,38.207558699999936,s,1,0.5383782000280917,None,,,D23,001,2025-03-29_19h49.00.996,416_EXPERIMENT_PSYCHOPY_AU2220019_AU2220225,2024.1.5,None,2025-03-29 19h49.19.255579 +0530,
fear_lower_blur.jpg,f,1,3,9,3,38.228960099979304,,,,,,,,,,,,,,,,38.20923689997289,38.228960099979304,39.720709200017154,39.720709200017154,39.736512499977835,40.22200980002526,f,1,0.48434810002800077,None,,,D23,001,2025-03-29_19h49.00.996,416_EXPERIMENT_PSYCHOPY_AU2220019_AU2220225,2024.1.5,None,2025-03-29 19h49.19.255579 +0530,
fear_upper_blur.jpg,f,1,4,10,2,40.2405415000394,,,,,,,,,,,,,,,,40.223711299942806,40.2405415000394,41.73441839998122,41.73441839998122,41.75226570002269,42.23768319992814,f,1,0.4924155999906361,None,,,D23,001,2025-03-29_19h49.00.996,416_EXPERIMENT_PSYCHOPY_AU2220019_AU2220225,2024.1.5,None,2025-03-29 19h49.19.255579 +0530,
fear.jpg,f,1,5,11,0,42.25734100001864,,,,,,,,,,,,,,,,42.23972299997695,42.25734100001864,43.74731499992777,43.74731499992777,43.76746370003093,44.11621310003102,f,1,0.3677077000029385,None,,,D23,001,2025-03-29_19h49.00.996,416_EXPERIMENT_PSYCHOPY_AU2220019_AU2220225,2024.1.5,None,2025-03-29 19h49.19.255579 +0530,
surprise_upper_blur.jpg,s,2,0,12,4,44.13289280002937,,,,,,,,,,,,,,,,44.11730969999917,44.13289280002937,45.63073340000119,45.63073340000119,45.647780300001614,46.365281800040975,None,0,,,46.386949999956414,46.386949999956414,D23,001,2025-03-29_19h49.00.996,416_EXPERIMENT_PSYCHOPY_AU2220019_AU2220225,2024.1.5,None,2025-03-29 19h49.19.255579 +0530,
fear_lower_blur.jpg,f,2,1,13,3,46.386949999956414,,,,,,,,,,,,,,,,46.366587699973024,46.386949999956414,47.878338400041685,47.878338400041685,47.895384500036016,48.44680849998258,f,1,0.5585676000919193,None,,,D23,001,2025-03-29_19h49.00.996,416_EXPERIMENT_PSYCHOPY_AU2220019_AU2220225,2024.1.5,None,2025-03-29 19h49.19.255579 +0530,
fear_upper_blur.jpg,f,2,2,14,2,48.46837489993777,,,,,,,,,,,,,,,,48.448648100020364,48.46837489993777,49.95963960001245,49.95963960001245,49.97662169998512,50.47807239997201,f,1,0.5032925000414252,None,,,D23,001,2025-03-29_19h49.00.996,416_EXPERIMENT_PSYCHOPY_AU2220019_AU2220225,2024.1.5,None,2025-03-29 19h49.19.255579 +0530,
surprise.jpg,s,2,3,15,1,50.496006199973635,,,,,,,,,,,,,,,,50.479455600026995,50.496006199973635,51.99104280001484,51.99104280001484,52.00766559992917,52.47725540003739,s,1,0.47579810000024736,None,,,D23,001,2025-03-29_19h49.00.996,416_EXPERIMENT_PSYCHOPY_AU2220019_AU2220225,2024.1.5,None,2025-03-29 19h49.19.255579 +0530,
surprise_lower_blur.jpg,s,2,4,16,5,52.50030389998574,,,,,,,,,,,,,,,,52.478813600027934,52.50030389998574,53.987152399960905,53.987152399960905,54.00376869994216,54.624902899959125,s,1,0.6316944001009688,None,,,D23,001,2025-03-29_19h49.00.996,416_EXPERIMENT_PSYCHOPY_AU2220019_AU2220225,2024.1.5,None,2025-03-29 19h49.19.255579 +0530,
fear.jpg,f,2,5,17,0,54.646351799950935,,,,,,,,,,,,,,,,54.62674670002889,54.646351799950935,56.13826379994862,56.13826379994862,56.153700900031254,56.456910499953665,f,1,0.31129750004038215,None,,,D23,001,2025-03-29_19h49.00.996,416_EXPERIMENT_PSYCHOPY_AU2220019_AU2220225,2024.1.5,None,2025-03-29 19h49.19.255579 +0530,
surprise.jpg,s,3,0,18,1,56.48041459999513,,,,,,,,,,,,,,,,56.45918999996502,56.48041459999513,57.96828909998294,57.96828909998294,57.98526739992667,58.369792100042105,f,0,0.3964665000094101,None,,,D23,001,2025-03-29_19h49.00.996,416_EXPERIMENT_PSYCHOPY_AU2220019_AU2220225,2024.1.5,None,2025-03-29 19h49.19.255579 +0530,
surprise_upper_blur.jpg,s,3,1,19,4,58.38973219995387,,,,,,,,,,,,,,,,58.370869699981995,58.38973219995387,59.88329909997992,59.88329909997992,59.90110409993213,60.33606530004181,f,0,0.4491296000778675,None,,,D23,001,2025-03-29_19h49.00.996,416_EXPERIMENT_PSYCHOPY_AU2220019_AU2220225,2024.1.5,None,2025-03-29 19h49.19.255579 +0530,
surprise_lower_blur.jpg,s,3,2,20,5,60.35892469994724,,,,,,,,,,,,,,,,60.338110200013034,60.35892469994724,61.84799859998748,61.84799859998748,61.86481089994777,62.583031699992716,None,0,,,62.60509910003748,62.60509910003748,D23,001,2025-03-29_19h49.00.996,416_EXPERIMENT_PSYCHOPY_AU2220019_AU2220225,2024.1.5,None,2025-03-29 19h49.19.255579 +0530,
fear_lower_blur.jpg,f,3,3,21,3,62.60509910003748,,,,,,,,,,,,,,,,62.58440489997156,62.60509910003748,64.09463039995171,64.09463039995171,64.11081909993663,64.71439939993434,f,1,0.6123363999649882,None,,,D23,001,2025-03-29_19h49.00.996,416_EXPERIMENT_PSYCHOPY_AU2220019_AU2220225,2024.1.5,None,2025-03-29 19h49.19.255579 +0530,
fear_upper_blur.jpg,f,3,4,22,2,64.73609899997246,,,,,,,,,,,,,,,,64.71610550000332,64.73609899997246,66.22722729993984,66.22722729993984,66.24416010000277,66.67916830000468,f,1,0.43450319999828935,None,,,D23,001,2025-03-29_19h49.00.996,416_EXPERIMENT_PSYCHOPY_AU2220019_AU2220225,2024.1.5,None,2025-03-29 19h49.19.255579 +0530,
fear.jpg,f,3,5,23,0,66.70029730000533,,,,,,,,,,,,,,,,66.68104890000541,66.70029730000533,68.19280139997136,68.19280139997136,68.20857999997679,68.69394669996109,f,1,0.4976255999645218,None,,,D23,001,2025-03-29_19h49.00.996,416_EXPERIMENT_PSYCHOPY_AU2220019_AU2220225,2024.1.5,None,2025-03-29 19h49.19.255579 +0530,
fear.jpg,f,4,0,24,0,68.71666809997987,,,,,,,,,,,,,,,,68.69571839994751,68.71666809997987,70.20602419995703,70.20602419995703,70.22380279994104,70.69214479997754,f,1,0.4728474000003189,None,,,D23,001,2025-03-29_19h49.00.996,416_EXPERIMENT_PSYCHOPY_AU2220019_AU2220225,2024.1.5,None,2025-03-29 19h49.19.255579 +0530,
fear_upper_blur.jpg,f,4,1,25,2,70.7126649999991,,,,,,,,,,,,,,,,70.69405189994723,70.7126649999991,72.2045198000269,72.2045198000269,72.22121700004209,72.65611500001978,f,1,0.43568280001636595,None,,,D23,001,2025-03-29_19h49.00.996,416_EXPERIMENT_PSYCHOPY_AU2220019_AU2220225,2024.1.5,None,2025-03-29 19h49.19.255579 +0530,
surprise_lower_blur.jpg,s,4,2,26,5,72.67892029997893,,,,,,,,,,,,,,,,72.65811239997856,72.67892029997893,74.16951349994633,74.16951349994633,74.18610539997462,74.83821209997404,s,1,0.6553594999713823,None,,,D23,001,2025-03-29_19h49.00.996,416_EXPERIMENT_PSYCHOPY_AU2220019_AU2220225,2024.1.5,None,2025-03-29 19h49.19.255579 +0530,
surprise.jpg,s,4,3,27,1,74.86103170004208,,,,,,,,,,,,,,,,74.84000790002756,74.86103170004208,76.35060320002958,76.35060320002958,76.36741169996094,77.00291879998986,s,1,0.6497438000515103,None,,,D23,001,2025-03-29_19h49.00.996,416_EXPERIMENT_PSYCHOPY_AU2220019_AU2220225,2024.1.5,None,2025-03-29 19h49.19.255579 +0530,
surprise_upper_blur.jpg,s,4,4,28,4,77.02406530000735,,,,,,,,,,,,,,,,77.00474659993779,77.02406530000735,78.51514589996077,78.51514589996077,78.53148649993818,79.06677909998689,s,1,0.5377254000632092,None,,,D23,001,2025-03-29_19h49.00.996,416_EXPERIMENT_PSYCHOPY_AU2220019_AU2220225,2024.1.5,None,2025-03-29 19h49.19.255579 +0530,
fear_lower_blur.jpg,f,4,5,29,3,79.08622339996509,,,,,,,,,,,,,,,,79.06879719998688,79.08622339996509,80.58065100002568,80.58065100002568,80.59609789995011,81.23277689993847,s,0,0.6483064000494778,None,,,D23,001,2025-03-29_19h49.00.996,416_EXPERIMENT_PSYCHOPY_AU2220019_AU2220225,2024.1.5,None,2025-03-29 19h49.19.255579 +0530,
fear_upper_blur.jpg,f,5,0,30,2,81.24996209994424,,,,,,,,,,,,,,,,81.23417820001487,81.24996209994424,82.74394229997415,82.74394229997415,82.76119460002519,83.32874769996852,f,1,0.5689983000047505,None,,,D23,001,2025-03-29_19h49.00.996,416_EXPERIMENT_PSYCHOPY_AU2220019_AU2220225,2024.1.5,None,2025-03-29 19h49.19.255579 +0530,
fear.jpg,f,5,1,31,0,83.34587520000059,,,,,,,,,,,,,,,,83.33016439992934,83.34587520000059,84.84210569993593,84.84210569993593,84.85878649994265,85.29431090003345,f,1,0.43671380006708205,None,,,D23,001,2025-03-29_19h49.00.996,416_EXPERIMENT_PSYCHOPY_AU2220019_AU2220225,2024.1.5,None,2025-03-29 19h49.19.255579 +0530,
fear_lower_blur.jpg,f,5,2,32,3,85.31414299993776,,,,,,,,,,,,,,,,85.29592019994743,85.31414299993776,86.80714239994995,86.80714239994995,86.82333379995544,87.19274830003269,f,1,0.3737530999351293,None,,,D23,001,2025-03-29_19h49.00.996,416_EXPERIMENT_PSYCHOPY_AU2220019_AU2220225,2024.1.5,None,2025-03-29 19h49.19.255579 +0530,
surprise_upper_blur.jpg,s,5,3,33,4,87.21482749993447,,,,,,,,,,,,,,,,87.19440619996749,87.21482749993447,88.70350279996637,88.70350279996637,88.72027009993326,89.32368639996275,s,1,0.6115137999877334,None,,,D23,001,2025-03-29_19h49.00.996,416_EXPERIMENT_PSYCHOPY_AU2220019_AU2220225,2024.1.5,None,2025-03-29 19h49.19.255579 +0530,
surprise.jpg,s,5,4,34,1,89.34545849997085,,,,,,,,,,,,,,,,89.32542150001973,89.34545849997085,90.83658709994052,90.83658709994052,90.85270419996232,91.40549869998358,s,1,0.5617534999037161,None,,,D23,001,2025-03-29_19h49.00.996,416_EXPERIMENT_PSYCHOPY_AU2220019_AU2220225,2024.1.5,None,2025-03-29 19h49.19.255579 +0530,
surprise_lower_blur.jpg,s,5,5,35,5,91.42891839996446,,,,,,,,,,,,,,,,91.4073319999734,91.42891839996446,92.91767140000593,92.91767140000593,92.93423409992829,93.65225959999952,None,0,,,93.6730759999482,93.6730759999482,D23,001,2025-03-29_19h49.00.996,416_EXPERIMENT_PSYCHOPY_AU2220019_AU2220225,2024.1.5,None,2025-03-29 19h49.19.255579 +0530,
fear.jpg,f,6,0,36,0,93.6730759999482,,,,,,,,,,,,,,,,93.6533413999714,93.6730759999482,95.16533230000641,95.16533230000641,95.18280429998413,95.89993539999705,None,0,,,95.92152680002619,95.92152680002619,D23,001,2025-03-29_19h49.00.996,416_EXPERIMENT_PSYCHOPY_AU2220019_AU2220225,2024.1.5,None,2025-03-29 19h49.19.255579 +0530,
surprise_upper_blur.jpg,s,6,1,37,4,95.92152680002619,,,,,,,,,,,,,,,,95.90120209997986,95.92152680002619,97.41271289996803,97.41271289996803,97.43077049998101,97.91632309998386,f,0,0.49998399999458343,None,,,D23,001,2025-03-29_19h49.00.996,416_EXPERIMENT_PSYCHOPY_AU2220019_AU2220225,2024.1.5,None,2025-03-29 19h49.19.255579 +0530,
fear_upper_blur.jpg,f,6,2,38,2,97.93708039994817,,,,,,,,,,,,,,,,97.91837400000077,97.93708039994817,99.42821339995135,99.42821339995135,99.4446301999269,99.84587760001887,f,1,0.4012210000073537,None,,,D23,001,2025-03-29_19h49.00.996,416_EXPERIMENT_PSYCHOPY_AU2220019_AU2220225,2024.1.5,None,2025-03-29 19h49.19.255579 +0530,
surprise.jpg,s,6,3,39,1,99.86671630002093,,,,,,,,,,,,,,,,99.84741839999333,99.86671630002093,101.35976170003414,101.35976170003414,101.37619939993601,101.79562689992599,f,0,0.42932009999640286,None,,,D23,001,2025-03-29_19h49.00.996,416_EXPERIMENT_PSYCHOPY_AU2220019_AU2220225,2024.1.5,None,2025-03-29 19h49.19.255579 +0530,
fear_lower_blur.jpg,f,6,4,40,3,101.8142212999519,,,,,,,,,,,,,,,,101.7971547000343,101.8142212999519,103.30763329996262,103.30763329996262,103.32551879994571,103.8930463999277,s,0,0.5746767999371514,None,,,D23,001,2025-03-29_19h49.00.996,416_EXPERIMENT_PSYCHOPY_AU2220019_AU2220225,2024.1.5,None,2025-03-29 19h49.19.255579 +0530,
surprise_lower_blur.jpg,s,6,5,41,5,103.91169390000869,,,,,,,,,,,,,,,,103.89460879995022,103.91169390000869,105.4055138999829,105.4055138999829,105.4229927000124,105.90914350003004,s,1,0.498369799926877,None,,,D23,001,2025-03-29_19h49.00.996,416_EXPERIMENT_PSYCHOPY_AU2220019_AU2220225,2024.1.5,None,2025-03-29 19h49.19.255579 +0530,
fear.jpg,f,7,0,42,0,105.92947860003915,,,,,,,,,,,,,,,,105.91101419995539,105.92947860003915,107.42098769999575,107.42098769999575,107.4366823999444,107.8726297999965,s,0,0.44574330002069473,None,,,D23,001,2025-03-29_19h49.00.996,416_EXPERIMENT_PSYCHOPY_AU2220019_AU2220225,2024.1.5,None,2025-03-29 19h49.19.255579 +0530,
surprise_upper_blur.jpg,s,7,1,43,4,107.89408130000811,,,,,,,,,,,,,,,,107.87450209993403,107.89408130000811,109.38332250004169,109.38332250004169,109.40005119994748,109.95157239993569,f,0,0.5560079999268055,None,,,D23,001,2025-03-29_19h49.00.996,416_EXPERIMENT_PSYCHOPY_AU2220019_AU2220225,2024.1.5,None,2025-03-29 19h49.19.255579 +0530,
surprise.jpg,s,7,2,44,1,109.96623449993785,,,,,,,,,,,,,,,,109.9524954999797,109.96623449993785,111.46457109996118,111.46457109996118,111.46457109996118,111.86520440003369,f,0,0.384185399976559,None,,,D23,001,2025-03-29_19h49.00.996,416_EXPERIMENT_PSYCHOPY_AU2220019_AU2220225,2024.1.5,None,2025-03-29 19h49.19.255579 +0530,
fear_upper_blur.jpg,f,7,3,45,2,111.88132159993984,,,,,,,,,,,,,,,,111.86610260000452,111.88132159993984,113.38792499992996,113.38792499992996,113.39634600002319,114.11364729993511,f,1,0.7243121999781579,None,,,D23,001,2025-03-29_19h49.00.996,416_EXPERIMENT_PSYCHOPY_AU2220019_AU2220225,2024.1.5,None,2025-03-29 19h49.19.255579 +0530,
surprise_lower_blur.jpg,s,7,4,46,5,114.12765259994194,,,,,,,,,,,,,,,,114.1146718999371,114.12765259994194,115.62710379995406,115.62710379995406,115.62710379995406,116.09535870002583,s,1,0.4535132000455633,None,,,D23,001,2025-03-29_19h49.00.996,416_EXPERIMENT_PSYCHOPY_AU2220019_AU2220225,2024.1.5,None,2025-03-29 19h49.19.255579 +0530,
fear_lower_blur.jpg,f,7,5,47,3,116.11143039993476,,,,,,,,,,,,,,,,116.09639489999972,116.11143039993476,117.60870949993841,117.60870949993841,117.62523030000739,117.89234399993438,f,1,0.27185089990962297,None,,,D23,001,2025-03-29_19h49.00.996,416_EXPERIMENT_PSYCHOPY_AU2220019_AU2220225,2024.1.5,None,2025-03-29 19h49.19.255579 +0530,
surprise_upper_blur.jpg,s,8,0,48,4,117.90810739994049,,,,,,,,,,,,,,,,117.89334710000549,117.90810739994049,119.39021330000833,119.39021330000833,119.42361089994665,119.77440759993624,f,0,0.3828928000293672,None,,,D23,001,2025-03-29_19h49.00.996,416_EXPERIMENT_PSYCHOPY_AU2220019_AU2220225,2024.1.5,None,2025-03-29 19h49.19.255579 +0530,
fear_lower_blur.jpg,f,8,1,49,3,119.79061259992886,,,,,,,,,,,,,,,,119.7753826000262,119.79061259992886,121.28976790001616,121.28976790001616,121.28976790001616,121.69262620003428,f,1,0.4000872999895364,None,,,D23,001,2025-03-29_19h49.00.996,416_EXPERIMENT_PSYCHOPY_AU2220019_AU2220225,2024.1.5,None,2025-03-29 19h49.19.255579 +0530,
surprise_lower_blur.jpg,s,8,2,50,5,121.71527539996896,,,,,,,,,,,,,,,,121.69429070001934,121.71527539996896,123.20425950002391,123.20425950002391,123.22166819998529,123.54169839993119,s,1,0.3340496000600979,None,,,D23,001,2025-03-29_19h49.00.996,416_EXPERIMENT_PSYCHOPY_AU2220019_AU2220225,2024.1.5,None,2025-03-29 19h49.19.255579 +0530,
surprise.jpg,s,8,3,51,1,123.5641969999997,,,,,,,,,,,,,,,,123.54402619996108,123.5641969999997,125.05332499998622,125.05332499998622,125.07055950001813,125.50668819993734,s,1,0.45118560001719743,None,,,D23,001,2025-03-29_19h49.00.996,416_EXPERIMENT_PSYCHOPY_AU2220019_AU2220225,2024.1.5,None,2025-03-29 19h49.19.255579 +0530,
fear.jpg,f,8,4,52,0,125.52966130001005,,,,,,,,,,,,,,,,125.50894660002086,125.52966130001005,127.01764049998019,127.01764049998019,127.03396229993086,127.40368440002203,f,1,0.3791913000168279,None,,,D23,001,2025-03-29_19h49.00.996,416_EXPERIMENT_PSYCHOPY_AU2220019_AU2220225,2024.1.5,None,2025-03-29 19h49.19.255579 +0530,
fear_upper_blur.jpg,f,8,5,53,2,127.42429250001442,,,,,,,,,,,,,,,,127.40571670001373,127.42429250001442,128.91420699993614,128.91420699993614,128.93092800001614,129.31765209999867,s,0,0.3935247000772506,None,,,D23,001,2025-03-29_19h49.00.996,416_EXPERIMENT_PSYCHOPY_AU2220019_AU2220225,2024.1.5,None,2025-03-29 19h49.19.255579 +0530,
fear.jpg,f,9,0,54,0,129.3391180000035,,,,,,,,,,,,,,,,129.31974930001888,129.3391180000035,130.82904199999757,130.82904199999757,130.84651599999052,131.2494915999705,s,0,0.41766709997318685,None,,,D23,001,2025-03-29_19h49.00.996,416_EXPERIMENT_PSYCHOPY_AU2220019_AU2220225,2024.1.5,None,2025-03-29 19h49.19.255579 +0530,
surprise_lower_blur.jpg,s,9,1,55,5,131.2711167000234,,,,,,,,,,,,,,,,131.25116370001342,131.2711167000234,132.76267600001302,132.76267600001302,132.77830270002596,133.13138539995998,s,1,0.3599235999863595,None,,,D23,001,2025-03-29_19h49.00.996,416_EXPERIMENT_PSYCHOPY_AU2220019_AU2220225,2024.1.5,None,2025-03-29 19h49.19.255579 +0530,
surprise_upper_blur.jpg,s,9,2,56,4,133.14982249995228,,,,,,,,,,,,,,,,133.13315210002474,133.14982249995228,134.64330530003645,134.64330530003645,134.66014169994742,135.2128518000245,s,1,0.5673433999763802,None,,,D23,001,2025-03-29_19h49.00.996,416_EXPERIMENT_PSYCHOPY_AU2220019_AU2220225,2024.1.5,None,2025-03-29 19h49.19.255579 +0530,
fear_lower_blur.jpg,f,9,3,57,3,135.23244209995028,,,,,,,,,,,,,,,,135.21469249995425,135.23244209995028,136.72451349999756,136.72451349999756,136.74157399998512,137.26016049995087,f,1,0.5240124999545515,None,,,D23,001,2025-03-29_19h49.00.996,416_EXPERIMENT_PSYCHOPY_AU2220019_AU2220225,2024.1.5,None,2025-03-29 19h49.19.255579 +0530,
fear_upper_blur.jpg,f,9,4,58,2,137.28096340002958,,,,,,,,,,,,,,,,137.26192349998746,137.28096340002958,138.77301460003946,138.77301460003946,138.78915470000356,139.23797609994654,f,1,0.4533872000174597,None,,,D23,001,2025-03-29_19h49.00.996,416_EXPERIMENT_PSYCHOPY_AU2220019_AU2220225,2024.1.5,None,2025-03-29 19h49.19.255579 +0530,
surprise.jpg,s,9,5,59,1,139.25400810001884,,,,,,,,,,,,,,,,139.2385692000389,139.25400810001884,140.75364509993233,140.75364509993233,140.75364509993233,141.30585470004007,s,1,0.5469876000424847,None,,,D23,001,2025-03-29_19h49.00.996,416_EXPERIMENT_PSYCHOPY_AU2220019_AU2220225,2024.1.5,None,2025-03-29 19h49.19.255579 +0530,
surprise.jpg,s,10,0,60,1,141.33171469997615,,,,,,,,,,,,,,,,141.30747020000126,141.33171469997615,142.81818049994763,142.81818049994763,142.835164399934,143.27077559998725,s,1,0.44258119992446154,None,,,D23,001,2025-03-29_19h49.00.996,416_EXPERIMENT_PSYCHOPY_AU2220019_AU2220225,2024.1.5,None,2025-03-29 19h49.19.255579 +0530,
fear_upper_blur.jpg,f,10,1,61,2,143.29128669993952,,,,,,,,,,,,,,,,143.27254549995996,143.29128669993952,144.784466000041,144.784466000041,144.80026849999558,145.36602409998886,f,1,0.5797330999048427,None,,,D23,001,2025-03-29_19h49.00.996,416_EXPERIMENT_PSYCHOPY_AU2220019_AU2220225,2024.1.5,None,2025-03-29 19h49.19.255579 +0530,
fear_lower_blur.jpg,f,10,2,62,3,145.38067630003206,,,,,,,,,,,,,,,,145.36668320000172,145.38067630003206,146.87949049996678,146.87949049996678,146.8965947999386,147.42988089995924,f,1,0.5428550000069663,None,,,D23,001,2025-03-29_19h49.00.996,416_EXPERIMENT_PSYCHOPY_AU2220019_AU2220225,2024.1.5,None,2025-03-29 19h49.19.255579 +0530,
surprise_upper_blur.jpg,s,10,3,63,4,147.44636780000292,,,,,,,,,,,,,,,,147.4304857000243,147.44636780000292,148.94574160000775,148.94574160000775,148.94574160000775,149.48117339995224,f,0,0.5175126000540331,None,,,D23,001,2025-03-29_19h49.00.996,416_EXPERIMENT_PSYCHOPY_AU2220019_AU2220225,2024.1.5,None,2025-03-29 19h49.19.255579 +0530,
fear.jpg,f,10,4,64,0,149.50104849995114,,,,,,,,,,,,,,,,149.48330910003278,149.50104849995114,150.9934707999928,150.9934707999928,151.01074119994882,151.43021949997637,f,1,0.43326019996311516,None,,,D23,001,2025-03-29_19h49.00.996,416_EXPERIMENT_PSYCHOPY_AU2220019_AU2220225,2024.1.5,None,2025-03-29 19h49.19.255579 +0530,
surprise_lower_blur.jpg,s,10,5,65,5,151.4493510000175,,,,,,,,,,,,,,,,151.43191839999054,151.4493510000175,152.94281079992652,152.94281079992652,152.9581623999402,153.39464960002806,f,0,0.43421249999664724,None,,,D23,001,2025-03-29_19h49.00.996,416_EXPERIMENT_PSYCHOPY_AU2220019_AU2220225,2024.1.5,None,2025-03-29 19h49.19.255579 +0530,
surprise_lower_blur.jpg,s,11,0,66,5,153.4144730999833,,,,,,,,,,,,,,,,153.3960662999889,153.4144730999833,154.90464600000996,154.90464600000996,154.92127769999206,155.6051641999511,s,1,0.6860000001033768,None,,,D23,001,2025-03-29_19h49.00.996,416_EXPERIMENT_PSYCHOPY_AU2220019_AU2220225,2024.1.5,None,2025-03-29 19h49.19.255579 +0530,
surprise_upper_blur.jpg,s,11,1,67,4,155.62089949997608,,,,,,,,,,,,,,,,155.60604430001695,155.62089949997608,157.1041993999388,157.1041993999388,157.12125349999405,157.82319529994857,f,0,0.7160866999765858,None,,,D23,001,2025-03-29_19h49.00.996,416_EXPERIMENT_PSYCHOPY_AU2220019_AU2220225,2024.1.5,None,2025-03-29 19h49.19.255579 +0530,
fear_lower_blur.jpg,f,11,2,68,3,157.84552189998794,,,,,,,,,,,,,,,,157.82478269992862,157.84552189998794,159.33592760004103,159.33592760004103,159.35318580002058,159.7213749999646,f,1,0.37946670001838356,None,,,D23,001,2025-03-29_19h49.00.996,416_EXPERIMENT_PSYCHOPY_AU2220019_AU2220225,2024.1.5,None,2025-03-29 19h49.19.255579 +0530,
fear_upper_blur.jpg,f,11,3,69,2,159.74081799993291,,,,,,,,,,,,,,,,159.72324500000104,159.74081799993291,161.23163990001194,161.23163990001194,161.24909840000328,161.68309860001318,s,0,0.4465248000342399,None,,,D23,001,2025-03-29_19h49.00.996,416_EXPERIMENT_PSYCHOPY_AU2220019_AU2220225,2024.1.5,None,2025-03-29 19h49.19.255579 +0530,
surprise.jpg,s,11,4,70,1,161.69868559995666,,,,,,,,,,,,,,,,161.68417449994013,161.69868559995666,163.1994154000422,163.1994154000422,163.21348559996113,163.94653069996275,None,0,,,,,D23,001,2025-03-29_19h49.00.996,416_EXPERIMENT_PSYCHOPY_AU2220019_AU2220225,2024.1.5,None,2025-03-29 19h49.19.255579 +0530,
fear.jpg,f,11,5,71,0,163.96275599999353,,,,,,,,,,,,,,,,163.94737980002537,163.96275599999353,165.44615969993174,165.44615969993174,165.46307599998545,166.1321106000105,f,1,0.6766976999351755,None,,,D23,001,2025-03-29_19h49.00.996,416_EXPERIMENT_PSYCHOPY_AU2220019_AU2220225,2024.1.5,None,2025-03-29 19h49.19.255579 +0530,
fear_lower_blur.jpg,f,12,0,72,3,166.1512069000164,,,,,,,,,,,,,,,,166.13393539993558,166.1512069000164,167.64403389999643,167.64403389999643,167.66125420003664,168.3779450999573,None,0,,,168.40046429994982,168.40046429994982,D23,001,2025-03-29_19h49.00.996,416_EXPERIMENT_PSYCHOPY_AU2220019_AU2220225,2024.1.5,None,2025-03-29 19h49.19.255579 +0530,
surprise_lower_blur.jpg,s,12,1,73,5,168.40046429994982,,,,,,,,,,,,,,,,168.37925330002327,168.40046429994982,169.8922282999847,169.8922282999847,169.90951499994844,170.51145799993537,s,1,0.6165123999817297,None,,,D23,001,2025-03-29_19h49.00.996,416_EXPERIMENT_PSYCHOPY_AU2220019_AU2220225,2024.1.5,None,2025-03-29 19h49.19.255579 +0530,
surprise.jpg,s,12,2,74,1,170.53161409997847,,,,,,,,,,,,,,,,170.51335279992782,170.53161409997847,172.02312070003245,172.02312070003245,172.040572399972,172.75828349997755,None,0,,,172.78102689993102,172.78102689993102,D23,001,2025-03-29_19h49.00.996,416_EXPERIMENT_PSYCHOPY_AU2220019_AU2220225,2024.1.5,None,2025-03-29 19h49.19.255579 +0530,
surprise_upper_blur.jpg,s,12,3,75,4,172.78102689993102,,,,,,,,,,,,,,,,172.75974919996224,172.78102689993102,174.27156629995443,174.27156629995443,174.28769040002953,174.82262220000848,f,0,0.539813100011088,None,,,D23,001,2025-03-29_19h49.00.996,416_EXPERIMENT_PSYCHOPY_AU2220019_AU2220225,2024.1.5,None,2025-03-29 19h49.19.255579 +0530,
fear_upper_blur.jpg,f,12,4,76,2,174.84267539996654,,,,,,,,,,,,,,,,174.82437129993923,174.84267539996654,176.33630970004015,176.33630970004015,176.35276809998322,176.7884611999616,f,1,0.4464947000378743,None,,,D23,001,2025-03-29_19h49.00.996,416_EXPERIMENT_PSYCHOPY_AU2220019_AU2220225,2024.1.5,None,2025-03-29 19h49.19.255579 +0530,
fear.jpg,f,12,5,77,0,176.81151749996934,,,,,,,,,,,,,,,,176.78998709993903,176.81151749996934,178.30080259998795,178.30080259998795,178.31706869998015,179.03449019999243,None,0,,,179.06083840003703,179.06083840003703,D23,001,2025-03-29_19h49.00.996,416_EXPERIMENT_PSYCHOPY_AU2220019_AU2220225,2024.1.5,None,2025-03-29 19h49.19.255579 +0530,
surprise.jpg,s,13,0,78,1,179.06083840003703,,,,,,,,,,,,,,,,179.03575969999656,179.06083840003703,180.5487315999344,180.5487315999344,180.56462950003333,181.0315376999788,s,1,0.4815419000806287,None,,,D23,001,2025-03-29_19h49.00.996,416_EXPERIMENT_PSYCHOPY_AU2220019_AU2220225,2024.1.5,None,2025-03-29 19h49.19.255579 +0530,
fear.jpg,f,13,1,79,0,181.0493025999749,,,,,,,,,,,,,,,,181.03230239998084,181.0493025999749,182.54488079994917,182.54488079994917,182.56138389999978,183.14738209999632,s,0,0.5977257000049576,None,,,D23,001,2025-03-29_19h49.00.996,416_EXPERIMENT_PSYCHOPY_AU2220019_AU2220225,2024.1.5,None,2025-03-29 19h49.19.255579 +0530,
surprise_lower_blur.jpg,s,13,2,80,5,183.16757139994297,,,,,,,,,,,,,,,,183.1495825999882,183.16757139994297,184.65948229993228,184.65948229993228,184.67594180000015,185.39591469999868,None,0,,,185.41847759997472,185.41847759997472,D23,001,2025-03-29_19h49.00.996,416_EXPERIMENT_PSYCHOPY_AU2220019_AU2220225,2024.1.5,None,2025-03-29 19h49.19.255579 +0530,
fear_upper_blur.jpg,f,13,3,81,2,185.41847759997472,,,,,,,,,,,,,,,,185.39752310002223,185.41847759997472,186.90860720002092,186.90860720002092,186.92571770003997,187.51053460000549,f,1,0.5860096999676898,None,,,D23,001,2025-03-29_19h49.00.996,416_EXPERIMENT_PSYCHOPY_AU2220019_AU2220225,2024.1.5,None,2025-03-29 19h49.19.255579 +0530,
surprise_upper_blur.jpg,s,13,4,82,4,187.52806519996375,,,,,,,,,,,,,,,,187.51200530002825,187.52806519996375,189.0239481999306,189.0239481999306,189.04020739998668,189.52577750000637,s,1,0.4924052000278607,None,,,D23,001,2025-03-29_19h49.00.996,416_EXPERIMENT_PSYCHOPY_AU2220019_AU2220225,2024.1.5,None,2025-03-29 19h49.19.255579 +0530,
fear_lower_blur.jpg,f,13,5,83,3,189.5498289000243,,,,,,,,,,,,,,,,189.52772120002192,189.5498289000243,191.0379447999876,191.0379447999876,191.0535821999656,191.52342949993908,f,1,0.47668069996871054,None,,,D23,001,2025-03-29_19h49.00.996,416_EXPERIMENT_PSYCHOPY_AU2220019_AU2220225,2024.1.5,None,2025-03-29 19h49.19.255579 +0530,
fear_upper_blur.jpg,f,14,0,84,2,191.5432999000186,,,,,,,,,,,,,,,,191.5252447000239,191.5432999000186,193.0356762999436,193.0356762999436,193.0526086000027,193.5377144999802,f,1,0.4886988999787718,None,,,D23,001,2025-03-29_19h49.00.996,416_EXPERIMENT_PSYCHOPY_AU2220019_AU2220225,2024.1.5,None,2025-03-29 19h49.19.255579 +0530,
surprise_lower_blur.jpg,s,14,1,85,5,193.55961599992588,,,,,,,,,,,,,,,,193.53974070004188,193.55961599992588,195.05172230000608,195.05172230000608,195.06771319999825,195.33608789998107,f,0,0.2730986999813467,None,,,D23,001,2025-03-29_19h49.00.996,416_EXPERIMENT_PSYCHOPY_AU2220019_AU2220225,2024.1.5,None,2025-03-29 19h49.19.255579 +0530,
fear_lower_blur.jpg,f,14,2,86,3,195.35855140001513,,,,,,,,,,,,,,,,195.3380235999357,195.35855140001513,196.84736459993292,196.84736459993292,196.86515870003495,197.2318382000085,f,1,0.37878999998793006,None,,,D23,001,2025-03-29_19h49.00.996,416_EXPERIMENT_PSYCHOPY_AU2220019_AU2220225,2024.1.5,None,2025-03-29 19h49.19.255579 +0530,
surprise_upper_blur.jpg,s,14,3,87,4,197.2474179000128,,,,,,,,,,,,,,,,197.23289179999847,197.2474179000128,198.74722529994324,198.74722529994324,198.74722529994324,199.29550909996033,s,1,0.5327424999559298,None,,,D23,001,2025-03-29_19h49.00.996,416_EXPERIMENT_PSYCHOPY_AU2220019_AU2220225,2024.1.5,None,2025-03-29 19h49.19.255579 +0530,
fear.jpg,f,14,4,88,0,199.31188249995466,,,,,,,,,,,,,,,,199.29607539996505,199.31188249995466,200.7947632999858,200.7947632999858,200.8118299000198,201.49729979992844,f,1,0.6996233999961987,None,,,D23,001,2025-03-29_19h49.00.996,416_EXPERIMENT_PSYCHOPY_AU2220019_AU2220225,2024.1.5,None,2025-03-29 19h49.19.255579 +0530,
surprise.jpg,s,14,5,89,1,201.51830190001056,,,,,,,,,,,,,,,,201.49903790000826,201.51830190001056,203.00988160003908,203.00988160003908,203.0264588999562,203.5942447000416,s,1,0.5744489000644535,None,,,D23,001,2025-03-29_19h49.00.996,416_EXPERIMENT_PSYCHOPY_AU2220019_AU2220225,2024.1.5,None,2025-03-29 19h49.19.255579 +0530,
surprise.jpg,s,15,0,90,1,203.61080120003317,,,,,,,,,,,,,,,,203.59536509995814,203.61080120003317,205.10776689997874,205.10776689997874,205.12478700000793,205.59278870001435,s,1,0.46845169994048774,None,,,D23,001,2025-03-29_19h49.00.996,416_EXPERIMENT_PSYCHOPY_AU2220019_AU2220225,2024.1.5,None,2025-03-29 19h49.19.255579 +0530,
surprise_lower_blur.jpg,s,15,1,91,5,205.6106530999532,,,,,,,,,,,,,,,,205.59411499998532,205.6106530999532,207.1050239999313,207.1050239999313,207.12286899995524,207.75725010002498,s,1,0.6448109999764711,None,,,D23,001,2025-03-29_19h49.00.996,416_EXPERIMENT_PSYCHOPY_AU2220019_AU2220225,2024.1.5,None,2025-03-29 19h49.19.255579 +0530,
fear_upper_blur.jpg,f,15,2,92,2,207.77793760003988,,,,,,,,,,,,,,,,207.75894949992653,207.77793760003988,209.2686420000391,209.2686420000391,209.28540990001056,209.70444490003865,f,1,0.4298725000116974,None,,,D23,001,2025-03-29_19h49.00.996,416_EXPERIMENT_PSYCHOPY_AU2220019_AU2220225,2024.1.5,None,2025-03-29 19h49.19.255579 +0530,
fear.jpg,f,15,3,93,0,209.72514969995245,,,,,,,,,,,,,,,,209.70579209993593,209.72514969995245,211.218373300042,211.218373300042,211.23433479992673,211.52060980000533,f,1,0.2902441999176517,None,,,D23,001,2025-03-29_19h49.00.996,416_EXPERIMENT_PSYCHOPY_AU2220019_AU2220225,2024.1.5,None,2025-03-29 19h49.19.255579 +0530,
fear_lower_blur.jpg,f,15,4,94,3,211.54104269994423,,,,,,,,,,,,,,,,211.5224581999937,211.54104269994423,213.03277009993326,213.03277009993326,213.0500863000052,213.54854089999571,f,1,0.5136377000017092,None,,,D23,001,2025-03-29_19h49.00.996,416_EXPERIMENT_PSYCHOPY_AU2220019_AU2220225,2024.1.5,None,2025-03-29 19h49.19.255579 +0530,
surprise_upper_blur.jpg,s,15,5,95,4,213.56428539997432,,,,,,,,,,,,,,,,213.54941530001815,213.56428539997432,215.06244889996015,215.06244889996015,215.07986399997026,215.46309540001675,s,1,0.39283850009087473,None,,,D23,001,2025-03-29_19h49.00.996,416_EXPERIMENT_PSYCHOPY_AU2220019_AU2220225,2024.1.5,None,2025-03-29 19h49.19.255579 +0530,
surprise_lower_blur.jpg,s,16,0,96,5,215.47939929994754,,,,,,,,,,,,,,,,215.46370580000803,215.47939929994754,216.9625573999947,216.9625573999947,216.97934289998375,217.24841310002375,f,0,0.27237749996129423,None,,,D23,001,2025-03-29_19h49.00.996,416_EXPERIMENT_PSYCHOPY_AU2220019_AU2220225,2024.1.5,None,2025-03-29 19h49.19.255579 +0530,
surprise_upper_blur.jpg,s,16,1,97,4,217.27136060001794,,,,,,,,,,,,,,,,217.2501440999331,217.27136060001794,218.76172690000385,218.76172690000385,218.77809799998067,219.49586669995915,None,0,,,219.5167338999454,219.5167338999454,D23,001,2025-03-29_19h49.00.996,416_EXPERIMENT_PSYCHOPY_AU2220019_AU2220225,2024.1.5,None,2025-03-29 19h49.19.255579 +0530,
fear_upper_blur.jpg,f,16,2,98,2,219.5167338999454,,,,,,,,,,,,,,,,219.49774170003366,219.5167338999454,221.00830680003855,221.00830680003855,221.02563649998046,221.4256827000063,s,0,0.4131891999859363,None,,,D23,001,2025-03-29_19h49.00.996,416_EXPERIMENT_PSYCHOPY_AU2220019_AU2220225,2024.1.5,None,2025-03-29 19h49.19.255579 +0530,
surprise.jpg,s,16,3,99,1,221.44252709997818,,,,,,,,,,,,,,,,221.4267594999401,221.44252709997818,222.93803129997104,222.93803129997104,222.9547651000321,223.49232389999088,s,1,0.5439221999840811,None,,,D23,001,2025-03-29_19h49.00.996,416_EXPERIMENT_PSYCHOPY_AU2220019_AU2220225,2024.1.5,None,2025-03-29 19h49.19.255579 +0530,
fear_lower_blur.jpg,f,16,4,100,3,223.51121799997054,,,,,,,,,,,,,,,,223.49402819992974,223.51121799997054,225.00448869995307,225.00448869995307,225.0218134999741,225.49012139998376,f,1,0.4680462999967858,None,,,D23,001,2025-03-29_19h49.00.996,416_EXPERIMENT_PSYCHOPY_AU2220019_AU2220225,2024.1.5,None,2025-03-29 19h49.19.255579 +0530,
fear.jpg,f,16,5,101,0,225.50998919992708,,,,,,,,,,,,,,,,225.4921946999384,225.50998919992708,227.00077679997776,227.00077679997776,227.0176612000214,227.48945059999824,f,1,0.48085379996336997,None,,,D23,001,2025-03-29_19h49.00.996,416_EXPERIMENT_PSYCHOPY_AU2220019_AU2220225,2024.1.5,None,2025-03-29 19h49.19.255579 +0530,
fear.jpg,f,17,0,102,0,227.50934540003072,,,,,,,,,,,,,,,,227.49112240003888,227.50934540003072,228.9982280000113,228.9982280000113,229.01581469993107,229.40349149995018,f,1,0.39146439998876303,None,,,D23,001,2025-03-29_19h49.00.996,416_EXPERIMENT_PSYCHOPY_AU2220019_AU2220225,2024.1.5,None,2025-03-29 19h49.19.255579 +0530,
surprise.jpg,s,17,1,103,1,229.42732090002391,,,,,,,,,,,,,,,,229.40540960000362,229.42732090002391,230.91526949999388,230.91526949999388,230.93364039994776,231.45077019999735,s,1,0.5227612000890076,None,,,D23,001,2025-03-29_19h49.00.996,416_EXPERIMENT_PSYCHOPY_AU2220019_AU2220225,2024.1.5,None,2025-03-29 19h49.19.255579 +0530,
surprise_lower_blur.jpg,s,17,2,104,5,231.47279269993305,,,,,,,,,,,,,,,,231.4524002999533,231.47279269993305,232.9635177999735,232.9635177999735,232.97994989994913,233.41592179995496,s,1,0.4405985999619588,None,,,D23,001,2025-03-29_19h49.00.996,416_EXPERIMENT_PSYCHOPY_AU2220019_AU2220225,2024.1.5,None,2025-03-29 19h49.19.255579 +0530,
fear_lower_blur.jpg,f,17,3,105,3,233.4350689999992,,,,,,,,,,,,,,,,233.41801419993863,233.4350689999992,234.92654799995944,234.92654799995944,234.943106599967,235.29411120002624,f,1,0.36409030004870147,None,,,D23,001,2025-03-29_19h49.00.996,416_EXPERIMENT_PSYCHOPY_AU2220019_AU2220225,2024.1.5,None,2025-03-29 19h49.19.255579 +0530,
fear_upper_blur.jpg,f,17,4,106,2,235.31004689994734,,,,,,,,,,,,,,,,235.29503839998506,235.31004689994734,236.80971029994544,236.80971029994544,236.80971029994544,237.29585989995394,f,1,0.4805865000234917,None,,,D23,001,2025-03-29_19h49.00.996,416_EXPERIMENT_PSYCHOPY_AU2220019_AU2220225,2024.1.5,None,2025-03-29 19h49.19.255579 +0530,
surprise_upper_blur.jpg,s,17,5,107,4,237.31728700001258,,,,,,,,,,,,,,,,237.29771910002455,237.31728700001258,238.80757189996075,238.80757189996075,238.82516659994144,239.26040949998423,f,0,0.4506397000513971,None,,,D23,001,2025-03-29_19h49.00.996,416_EXPERIMENT_PSYCHOPY_AU2220019_AU2220225,2024.1.5,None,2025-03-29 19h49.19.255579 +0530,
surprise_upper_blur.jpg,s,18,0,108,4,239.2811231999658,,,,,,,,,,,,,,,,239.26233729999512,239.2811231999658,240.7724434999982,240.7724434999982,240.7886919999728,241.5066242000321,None,0,,,241.52730369998608,241.52730369998608,D23,001,2025-03-29_19h49.00.996,416_EXPERIMENT_PSYCHOPY_AU2220019_AU2220225,2024.1.5,None,2025-03-29 19h49.19.255579 +0530,
fear_upper_blur.jpg,f,18,1,109,2,241.52730369998608,,,,,,,,,,,,,,,,241.50858509994578,241.52730369998608,243.01867739995942,243.01867739995942,243.03543829999398,243.75387859996408,None,0,,,243.7742138999747,243.7742138999747,D23,001,2025-03-29_19h49.00.996,416_EXPERIMENT_PSYCHOPY_AU2220019_AU2220225,2024.1.5,None,2025-03-29 19h49.19.255579 +0530,
surprise_lower_blur.jpg,s,18,2,110,5,243.7742138999747,,,,,,,,,,,,,,,,243.7552844999591,243.7742138999747,245.26774699997623,245.26774699997623,245.2834375000093,246.00263510004152,None,0,,,246.02363910002168,246.02363910002168,D23,001,2025-03-29_19h49.00.996,416_EXPERIMENT_PSYCHOPY_AU2220019_AU2220225,2024.1.5,None,2025-03-29 19h49.19.255579 +0530,
fear.jpg,f,18,3,111,0,246.02363910002168,,,,,,,,,,,,,,,,246.00395389995538,246.02363910002168,247.5154658999527,247.5154658999527,247.5325169999851,248.26380830002017,None,0,,,,,D23,001,2025-03-29_19h49.00.996,416_EXPERIMENT_PSYCHOPY_AU2220019_AU2220225,2024.1.5,None,2025-03-29 19h49.19.255579 +0530,
fear_lower_blur.jpg,f,18,4,112,3,248.28057840000838,,,,,,,,,,,,,,,,248.26448330003768,248.28057840000838,249.76439589995425,249.76439589995425,249.77984139998443,250.1501773999771,f,1,0.38011879997793585,None,,,D23,001,2025-03-29_19h49.00.996,416_EXPERIMENT_PSYCHOPY_AU2220019_AU2220225,2024.1.5,None,2025-03-29 19h49.19.255579 +0530,
surprise.jpg,s,18,5,113,1,250.17322609992698,,,,,,,,,,,,,,,,250.1519099000143,250.17322609992698,251.66159919998609,251.66159919998609,251.6781053999439,252.18018299993128,s,1,0.515378599986434,None,,,D23,001,2025-03-29_19h49.00.996,416_EXPERIMENT_PSYCHOPY_AU2220019_AU2220225,2024.1.5,None,2025-03-29 19h49.19.255579 +0530,
surprise.jpg,s,19,0,114,1,252.2030034000054,,,,,,,,,,,,,,,,252.18222980003338,252.2030034000054,253.6933049999643,253.6933049999643,253.7102995000314,254.1783992999699,f,0,0.46764140005689114,None,,,D23,001,2025-03-29_19h49.00.996,416_EXPERIMENT_PSYCHOPY_AU2220019_AU2220225,2024.1.5,None,2025-03-29 19h49.19.255579 +0530,
fear.jpg,f,19,1,115,0,254.20033729996067,,,,,,,,,,,,,,,,254.18031480000354,254.20033729996067,255.6916174000362,255.6916174000362,255.7082491000183,256.27656459994614,f,1,0.5813003999646753,None,,,D23,001,2025-03-29_19h49.00.996,416_EXPERIMENT_PSYCHOPY_AU2220019_AU2220225,2024.1.5,None,2025-03-29 19h49.19.255579 +0530,
surprise_lower_blur.jpg,s,19,2,116,5,256.2946988999611,,,,,,,,,,,,,,,,256.2781565999612,256.2946988999611,257.7895999000175,257.7895999000175,257.8065550000174,258.5230503999628,s,1,0.721583400038071,None,,,D23,001,2025-03-29_19h49.00.996,416_EXPERIMENT_PSYCHOPY_AU2220019_AU2220225,2024.1.5,None,2025-03-29 19h49.19.255579 +0530,
fear_upper_blur.jpg,f,19,3,117,2,258.54127519996837,,,,,,,,,,,,,,,,258.52431909996085,258.54127519996837,260.0368786000181,260.0368786000181,260.053537699976,260.56993929995224,f,1,0.5291920000454411,None,,,D23,001,2025-03-29_19h49.00.996,416_EXPERIMENT_PSYCHOPY_AU2220019_AU2220225,2024.1.5,None,2025-03-29 19h49.19.255579 +0530,
fear_lower_blur.jpg,f,19,4,118,3,260.58523600001354,,,,,,,,,,,,,,,,260.57084249996115,260.58523600001354,262.0859627999598,262.0859627999598,262.0859627999598,262.82021100004204,f,1,0.7202578999567777,None,,,D23,001,2025-03-29_19h49.00.996,416_EXPERIMENT_PSYCHOPY_AU2220019_AU2220225,2024.1.5,None,2025-03-29 19h49.19.255579 +0530,
surprise_upper_blur.jpg,s,19,5,119,4,262.8442851,,,,,,,,,,,,,,,,262.8218495999463,262.8442851,264.3326127999462,264.3326127999462,264.35021569998935,265.0827344999416,None,0,,,,,D23,001,2025-03-29_19h49.00.996,416_EXPERIMENT_PSYCHOPY_AU2220019_AU2220225,2024.1.5,None,2025-03-29 19h49.19.255579 +0530,
