stimulus_image,correct_response,loop.thisRepN,loop.thisTrialN,loop.thisN,loop.thisIndex,thisRow.t,notes,guide.started,instructions.started,ins_resp.started,guide.stopped,ins_resp.keys,ins_resp.rt,ins_resp.duration,guide_2.started,ins_resp_2.started,instructions_2.started,guide_2.stopped,ins_resp_2.keys,ins_resp_2.rt,ins_resp_2.duration,trial.started,fixation.started,image.started,key_resp.started,fixation.stopped,trial.stopped,key_resp.keys,key_resp.corr,key_resp.rt,key_resp.duration,image.stopped,key_resp.stopped,participant,session,date,expName,psychopyVersion,frameRate,expStart,
,,,,,,,,0.004490800201892853,0.02227760013192892,0.02227760013192892,44.8189449000638,space,44.77694520005025,None,,,,,,,,,,,,,,,,,,,,D43,001,2025-04-05_19h33.54.928,416_EXPERIMENT_PSYCHOPY_AU2220019_AU2220225,2024.1.5,None,2025-04-05 19h34.11.747207 +0530,
,,,,,,,,,,,,,,,44.81899260007776,44.827751900069416,44.827751900069416,47.77845480013639,space,2.936754500027746,None,,,,,,,,,,,,,D43,001,2025-04-05_19h33.54.928,416_EXPERIMENT_PSYCHOPY_AU2220019_AU2220225,2024.1.5,None,2025-04-05 19h34.11.747207 +0530,
surprise_lower_blur.jpg,s,0,0,0,5,47.82463230006397,,,,,,,,,,,,,,,,47.79716100008227,47.82463230006397,49.35150400013663,49.35150400013663,49.358940000180155,49.92743660020642,s,1,0.5710245000664145,None,,,D43,001,2025-04-05_19h33.54.928,416_EXPERIMENT_PSYCHOPY_AU2220019_AU2220225,2024.1.5,None,2025-04-05 19h34.11.747207 +0530,
fear_lower_blur.jpg,f,0,1,1,3,49.94604060007259,,,,,,,,,,,,,,,,49.930254000006244,49.94604060007259,51.43934889999218,51.43934889999218,51.45551830017939,51.858650600072,s,0,0.41728370008058846,None,,,D43,001,2025-04-05_19h33.54.928,416_EXPERIMENT_PSYCHOPY_AU2220019_AU2220225,2024.1.5,None,2025-04-05 19h34.11.747207 +0530,
surprise_upper_blur.jpg,s,0,2,2,4,51.8767119999975,,,,,,,,,,,,,,,,51.860422500176355,51.8767119999975,53.37133770016953,53.37133770016953,53.38745350018144,53.87383050005883,f,0,0.49945779982954264,None,,,D43,001,2025-04-05_19h33.54.928,416_EXPERIMENT_PSYCHOPY_AU2220019_AU2220225,2024.1.5,None,2025-04-05 19h34.11.747207 +0530,
fear_upper_blur.jpg,f,0,3,3,2,53.89060250017792,,,,,,,,,,,,,,,,53.87541440012865,53.89060250017792,55.384885400068015,55.384885400068015,55.40249180002138,55.887504500104114,f,1,0.485692499903962,None,,,D43,001,2025-04-05_19h33.54.928,416_EXPERIMENT_PSYCHOPY_AU2220019_AU2220225,2024.1.5,None,2025-04-05 19h34.11.747207 +0530,
surprise.jpg,s,0,4,4,1,55.90474210004322,,,,,,,,,,,,,,,,55.88892070017755,55.90474210004322,57.40064110001549,57.40064110001549,57.41689390013926,57.81992080016062,s,1,0.4155665999278426,None,,,D43,001,2025-04-05_19h33.54.928,416_EXPERIMENT_PSYCHOPY_AU2220019_AU2220225,2024.1.5,None,2025-04-05 19h34.11.747207 +0530,
fear.jpg,f,0,5,5,0,57.838704800000414,,,,,,,,,,,,,,,,57.82153110019863,57.838704800000414,59.33178000012413,59.33178000012413,59.348806200083345,59.91680260002613,f,1,0.5777078000828624,None,,,D43,001,2025-04-05_19h33.54.928,416_EXPERIMENT_PSYCHOPY_AU2220019_AU2220225,2024.1.5,None,2025-04-05 19h34.11.747207 +0530,
surprise_lower_blur.jpg,s,1,0,6,5,59.93544160015881,,,,,,,,,,,,,,,,59.9184472002089,59.93544160015881,61.4301716000773,61.4301716000773,61.44659340009093,61.897769700037315,s,1,0.4581885999068618,None,,,D43,001,2025-04-05_19h33.54.928,416_EXPERIMENT_PSYCHOPY_AU2220019_AU2220225,2024.1.5,None,2025-04-05 19h34.11.747207 +0530,
surprise_upper_blur.jpg,s,1,1,7,4,61.91502210008912,,,,,,,,,,,,,,,,61.89894130011089,61.91502210008912,63.41091760015115,63.41091760015115,63.4278801002074,64.02916090004146,s,1,0.6076657001394778,None,,,D43,001,2025-04-05_19h33.54.928,416_EXPERIMENT_PSYCHOPY_AU2220019_AU2220225,2024.1.5,None,2025-04-05 19h34.11.747207 +0530,
surprise.jpg,s,1,2,8,1,64.04649560013786,,,,,,,,,,,,,,,,64.03059710003436,64.04649560013786,65.54232340003364,65.54232340003364,65.55897810007446,66.04499750002287,s,1,0.49637979990802705,None,,,D43,001,2025-04-05_19h33.54.928,416_EXPERIMENT_PSYCHOPY_AU2220019_AU2220225,2024.1.5,None,2025-04-05 19h34.11.747207 +0530,
fear_upper_blur.jpg,f,1,3,9,2,66.06278340006247,,,,,,,,,,,,,,,,66.04684020020068,66.06278340006247,67.55677980021574,67.55677980021574,67.57390760001726,68.05881529999897,f,1,0.4861688001547009,None,,,D43,001,2025-04-05_19h33.54.928,416_EXPERIMENT_PSYCHOPY_AU2220019_AU2220225,2024.1.5,None,2025-04-05 19h34.11.747207 +0530,
fear_lower_blur.jpg,f,1,4,10,3,68.07686800020747,,,,,,,,,,,,,,,,68.06067690020427,68.07686800020747,69.57140890019946,69.57140890019946,69.58922920003533,70.0239356001839,f,1,0.44370850012637675,None,,,D43,001,2025-04-05_19h33.54.928,416_EXPERIMENT_PSYCHOPY_AU2220019_AU2220225,2024.1.5,None,2025-04-05 19h34.11.747207 +0530,
fear.jpg,f,1,5,11,0,70.04124040016904,,,,,,,,,,,,,,,,70.02518120012246,70.04124040016904,71.53613640018739,71.53613640018739,71.55284560006112,72.00431960006244,f,1,0.45218169991858304,None,,,D43,001,2025-04-05_19h33.54.928,416_EXPERIMENT_PSYCHOPY_AU2220019_AU2220225,2024.1.5,None,2025-04-05 19h34.11.747207 +0530,
surprise_lower_blur.jpg,s,2,0,12,5,72.02106240019202,,,,,,,,,,,,,,,,72.0058972002007,72.02106240019202,73.51793700014241,73.51793700014241,73.53423920017667,74.20316100004129,s,1,0.6688622999936342,None,,,D43,001,2025-04-05_19h33.54.928,416_EXPERIMENT_PSYCHOPY_AU2220019_AU2220225,2024.1.5,None,2025-04-05 19h34.11.747207 +0530,
fear_upper_blur.jpg,f,2,1,13,2,74.21988070011139,,,,,,,,,,,,,,,,74.20444680005312,74.21988070011139,75.71627740003169,75.71627740003169,75.73207350005396,76.45014080009423,None,0,,,76.47378580016084,76.47378580016084,D43,001,2025-04-05_19h33.54.928,416_EXPERIMENT_PSYCHOPY_AU2220019_AU2220225,2024.1.5,None,2025-04-05 19h34.11.747207 +0530,
surprise_upper_blur.jpg,s,2,2,14,4,76.47378580016084,,,,,,,,,,,,,,,,76.45178290014155,76.47378580016084,77.96410040021874,77.96410040021874,77.9806181001477,78.54829250019975,s,1,0.568934400100261,None,,,D43,001,2025-04-05_19h33.54.928,416_EXPERIMENT_PSYCHOPY_AU2220019_AU2220225,2024.1.5,None,2025-04-05 19h34.11.747207 +0530,
surprise.jpg,s,2,3,15,1,78.56517440010794,,,,,,,,,,,,,,,,78.5495477002114,78.56517440010794,80.0611720001325,80.0611720001325,80.07764770020731,80.74691139999777,s,1,0.6807043999433517,None,,,D43,001,2025-04-05_19h33.54.928,416_EXPERIMENT_PSYCHOPY_AU2220019_AU2220225,2024.1.5,None,2025-04-05 19h34.11.747207 +0530,
fear.jpg,f,2,4,16,0,80.76476650009863,,,,,,,,,,,,,,,,80.74825699999928,80.76476650009863,82.2588994000107,82.2588994000107,82.27595000015572,82.97752970014699,f,1,0.708383500110358,None,,,D43,001,2025-04-05_19h33.54.928,416_EXPERIMENT_PSYCHOPY_AU2220019_AU2220225,2024.1.5,None,2025-04-05 19h34.11.747207 +0530,
fear_lower_blur.jpg,f,2,5,17,3,82.99430070002563,,,,,,,,,,,,,,,,82.97874120017514,82.99430070002563,84.48988860007375,84.48988860007375,84.50714030000381,85.1257788001094,f,1,0.6271446000318974,None,,,D43,001,2025-04-05_19h33.54.928,416_EXPERIMENT_PSYCHOPY_AU2220019_AU2220225,2024.1.5,None,2025-04-05 19h34.11.747207 +0530,
surprise_lower_blur.jpg,s,3,0,18,5,85.1432749000378,,,,,,,,,,,,,,,,85.12760930019431,85.1432749000378,86.6385444002226,86.6385444002226,86.6559278999921,87.3731579000596,None,0,,,87.3910486001987,87.3910486001987,D43,001,2025-04-05_19h33.54.928,416_EXPERIMENT_PSYCHOPY_AU2220019_AU2220225,2024.1.5,None,2025-04-05 19h34.11.747207 +0530,
fear_lower_blur.jpg,f,3,1,19,3,87.3910486001987,,,,,,,,,,,,,,,,87.374738200102,87.3910486001987,88.88603390008211,88.88603390008211,88.90273070009425,89.62097680009902,None,0,,,89.63918050006032,89.63918050006032,D43,001,2025-04-05_19h33.54.928,416_EXPERIMENT_PSYCHOPY_AU2220019_AU2220225,2024.1.5,None,2025-04-05 19h34.11.747207 +0530,
fear.jpg,f,3,2,20,0,89.63918050006032,,,,,,,,,,,,,,,,89.62289370014332,89.63918050006032,91.13403660012409,91.13403660012409,91.15072580007836,91.50214470014907,f,1,0.3540042000822723,None,,,D43,001,2025-04-05_19h33.54.928,416_EXPERIMENT_PSYCHOPY_AU2220019_AU2220225,2024.1.5,None,2025-04-05 19h34.11.747207 +0530,
fear_upper_blur.jpg,f,3,3,21,2,91.51920950016938,,,,,,,,,,,,,,,,91.50352830020711,91.51920950016938,93.0156434001401,93.0156434001401,93.03185120015405,93.53334730002098,f,1,0.5109329000115395,None,,,D43,001,2025-04-05_19h33.54.928,416_EXPERIMENT_PSYCHOPY_AU2220019_AU2220225,2024.1.5,None,2025-04-05 19h34.11.747207 +0530,
surprise_upper_blur.jpg,s,3,4,22,4,93.55123550002463,,,,,,,,,,,,,,,,93.53482530009933,93.55123550002463,95.04671830008738,95.04671830008738,95.06349590001628,95.78062530001625,None,0,,,95.79630530020222,95.79630530020222,D43,001,2025-04-05_19h33.54.928,416_EXPERIMENT_PSYCHOPY_AU2220019_AU2220225,2024.1.5,None,2025-04-05 19h34.11.747207 +0530,
surprise.jpg,s,3,5,23,1,95.79630530020222,,,,,,,,,,,,,,,,95.7817103001289,95.79630530020222,97.29473580000922,97.29473580000922,97.3112499001436,97.82980010006577,s,1,0.5253030001185834,None,,,D43,001,2025-04-05_19h33.54.928,416_EXPERIMENT_PSYCHOPY_AU2220019_AU2220225,2024.1.5,None,2025-04-05 19h34.11.747207 +0530,
fear_upper_blur.jpg,f,4,0,24,2,97.84690040000714,,,,,,,,,,,,,,,,97.8316261,97.84690040000714,99.34332250012085,99.34332250012085,99.35954750003293,99.97812850004993,f,1,0.6296703999396414,None,,,D43,001,2025-04-05_19h33.54.928,416_EXPERIMENT_PSYCHOPY_AU2220019_AU2220225,2024.1.5,None,2025-04-05 19h34.11.747207 +0530,
fear.jpg,f,4,1,25,0,99.99664340005256,,,,,,,,,,,,,,,,99.97952330019325,99.99664340005256,101.49045200017281,101.49045200017281,101.50739490007982,102.05936680012383,f,1,0.5664329000283033,None,,,D43,001,2025-04-05_19h33.54.928,416_EXPERIMENT_PSYCHOPY_AU2220019_AU2220225,2024.1.5,None,2025-04-05 19h34.11.747207 +0530,
surprise.jpg,s,4,2,26,1,102.07718430017121,,,,,,,,,,,,,,,,102.0608921002131,102.07718430017121,103.57126420014538,103.57126420014538,103.58917590021156,104.12465490004979,f,0,0.5514020998962224,None,,,D43,001,2025-04-05_19h33.54.928,416_EXPERIMENT_PSYCHOPY_AU2220019_AU2220225,2024.1.5,None,2025-04-05 19h34.11.747207 +0530,
surprise_lower_blur.jpg,s,4,3,27,5,104.14246160001494,,,,,,,,,,,,,,,,104.1263030001428,104.14246160001494,105.63686130009592,105.63686130009592,105.65321900020353,106.1551248000469,s,1,0.5029956998769194,None,,,D43,001,2025-04-05_19h33.54.928,416_EXPERIMENT_PSYCHOPY_AU2220019_AU2220225,2024.1.5,None,2025-04-05 19h34.11.747207 +0530,
surprise_upper_blur.jpg,s,4,4,28,4,106.1722520000767,,,,,,,,,,,,,,,,106.15653010015376,106.1722520000767,107.66788020008244,107.66788020008244,107.68421660014428,108.12007930013351,f,0,0.4461465999484062,None,,,D43,001,2025-04-05_19h33.54.928,416_EXPERIMENT_PSYCHOPY_AU2220019_AU2220225,2024.1.5,None,2025-04-05 19h34.11.747207 +0530,
fear_lower_blur.jpg,f,4,5,29,3,108.13884170004167,,,,,,,,,,,,,,,,108.12182490015402,108.13884170004167,109.63232750003226,109.63232750003226,109.64880010019988,110.18420480005443,f,1,0.5427486000116915,None,,,D43,001,2025-04-05_19h33.54.928,416_EXPERIMENT_PSYCHOPY_AU2220019_AU2220225,2024.1.5,None,2025-04-05 19h34.11.747207 +0530,
fear.jpg,f,5,0,30,0,110.20191580010578,,,,,,,,,,,,,,,,110.18606690014713,110.20191580010578,111.69678890006617,111.69678890006617,111.71409340016544,112.14731410006061,f,1,0.4359087999910116,None,,,D43,001,2025-04-05_19h33.54.928,416_EXPERIMENT_PSYCHOPY_AU2220019_AU2220225,2024.1.5,None,2025-04-05 19h34.11.747207 +0530,
fear_upper_blur.jpg,f,5,1,31,2,112.1621073000133,,,,,,,,,,,,,,,,112.14856070000678,112.1621073000133,113.66229510004632,113.66229510004632,113.66229510004632,114.0965634000022,f,1,0.42218779982067645,None,,,D43,001,2025-04-05_19h33.54.928,416_EXPERIMENT_PSYCHOPY_AU2220019_AU2220225,2024.1.5,None,2025-04-05 19h34.11.747207 +0530,
surprise.jpg,s,5,2,32,1,114.11329200002365,,,,,,,,,,,,,,,,114.09777760016732,114.11329200002365,115.60955680022016,115.60955680022016,115.62632490019314,116.19503820012324,f,0,0.5798355001024902,None,,,D43,001,2025-04-05_19h33.54.928,416_EXPERIMENT_PSYCHOPY_AU2220019_AU2220225,2024.1.5,None,2025-04-05 19h34.11.747207 +0530,
fear_lower_blur.jpg,f,5,3,33,3,116.21203150018118,,,,,,,,,,,,,,,,116.19659740012139,116.21203150018118,117.70723870000802,117.70723870000802,117.72454409999773,118.24249740014784,f,1,0.5232631999533623,None,,,D43,001,2025-04-05_19h33.54.928,416_EXPERIMENT_PSYCHOPY_AU2220019_AU2220225,2024.1.5,None,2025-04-05 19h34.11.747207 +0530,
surprise_lower_blur.jpg,s,5,4,34,5,118.2589768001344,,,,,,,,,,,,,,,,118.24392600008287,118.2589768001344,119.75580840022303,119.75580840022303,119.77247710013762,120.32422710000537,s,1,0.5655056999530643,None,,,D43,001,2025-04-05_19h33.54.928,416_EXPERIMENT_PSYCHOPY_AU2220019_AU2220225,2024.1.5,None,2025-04-05 19h34.11.747207 +0530,
surprise_upper_blur.jpg,s,5,5,35,4,120.34023440000601,,,,,,,,,,,,,,,,120.3258076000493,120.34023440000601,121.83742280001752,121.83742280001752,121.85438680020161,122.40594740002416,f,0,0.5534769000951201,None,,,D43,001,2025-04-05_19h33.54.928,416_EXPERIMENT_PSYCHOPY_AU2220019_AU2220225,2024.1.5,None,2025-04-05 19h34.11.747207 +0530,
fear_lower_blur.jpg,f,6,0,36,3,122.42542740004137,,,,,,,,,,,,,,,,122.40776570001617,122.42542740004137,123.9181144000031,123.9181144000031,123.93450210010633,124.58504110015929,f,1,0.6592552999500185,None,,,D43,001,2025-04-05_19h33.54.928,416_EXPERIMENT_PSYCHOPY_AU2220019_AU2220225,2024.1.5,None,2025-04-05 19h34.11.747207 +0530,
fear_upper_blur.jpg,f,6,1,37,2,124.59925490012392,,,,,,,,,,,,,,,,124.58607860002667,124.59925490012392,126.10004180017859,126.10004180017859,126.10004180017859,126.60085780010559,s,0,0.4878664000425488,None,,,D43,001,2025-04-05_19h33.54.928,416_EXPERIMENT_PSYCHOPY_AU2220019_AU2220225,2024.1.5,None,2025-04-05 19h34.11.747207 +0530,
surprise_lower_blur.jpg,s,6,2,38,5,126.61631370009854,,,,,,,,,,,,,,,,126.60192810022272,126.61631370009854,128.1142171001993,128.1142171001993,128.13118240004405,128.68454470019788,s,1,0.5547343001235276,None,,,D43,001,2025-04-05_19h33.54.928,416_EXPERIMENT_PSYCHOPY_AU2220019_AU2220225,2024.1.5,None,2025-04-05 19h34.11.747207 +0530,
fear.jpg,f,6,3,39,0,128.700109800091,,,,,,,,,,,,,,,,128.6860522001516,128.700109800091,130.1961436001584,130.1961436001584,130.21214700001292,130.63081040000543,f,1,0.42427539988420904,None,,,D43,001,2025-04-05_19h33.54.928,416_EXPERIMENT_PSYCHOPY_AU2220019_AU2220225,2024.1.5,None,2025-04-05 19h34.11.747207 +0530,
surprise_upper_blur.jpg,s,6,4,40,4,130.6476927001495,,,,,,,,,,,,,,,,130.632590000052,130.6476927001495,132.14338220003992,132.14338220003992,132.16052890010178,132.69631290016696,f,0,0.5456395999062806,None,,,D43,001,2025-04-05_19h33.54.928,416_EXPERIMENT_PSYCHOPY_AU2220019_AU2220225,2024.1.5,None,2025-04-05 19h34.11.747207 +0530,
surprise.jpg,s,6,5,41,1,132.716411100002,,,,,,,,,,,,,,,,132.6982162001077,132.716411100002,134.20785110001452,134.20785110001452,134.22513730009086,134.6613395002205,s,1,0.44653670000843704,None,,,D43,001,2025-04-05_19h33.54.928,416_EXPERIMENT_PSYCHOPY_AU2220019_AU2220225,2024.1.5,None,2025-04-05 19h34.11.747207 +0530,
surprise.jpg,s,7,0,42,1,134.67914160015061,,,,,,,,,,,,,,,,134.66275500017218,134.67914160015061,136.17303599999286,136.17303599999286,136.19016710016876,136.75786100002006,s,1,0.5692159999161959,None,,,D43,001,2025-04-05_19h33.54.928,416_EXPERIMENT_PSYCHOPY_AU2220019_AU2220225,2024.1.5,None,2025-04-05 19h34.11.747207 +0530,
fear_lower_blur.jpg,f,7,1,43,3,136.77539970004,,,,,,,,,,,,,,,,136.75950710009784,136.77539970004,138.2710192000959,138.2710192000959,138.28802330000326,138.9734896000009,f,1,0.6969177999999374,None,,,D43,001,2025-04-05_19h33.54.928,416_EXPERIMENT_PSYCHOPY_AU2220019_AU2220225,2024.1.5,None,2025-04-05 19h34.11.747207 +0530,
surprise_lower_blur.jpg,s,7,2,44,5,138.99084790004417,,,,,,,,,,,,,,,,138.9749649001751,138.99084790004417,140.4852294002194,140.4852294002194,140.50183710013516,140.9868042001035,s,1,0.4881176999770105,None,,,D43,001,2025-04-05_19h33.54.928,416_EXPERIMENT_PSYCHOPY_AU2220019_AU2220225,2024.1.5,None,2025-04-05 19h34.11.747207 +0530,
fear_upper_blur.jpg,f,7,3,45,2,141.00299820001237,,,,,,,,,,,,,,,,140.9879496002104,141.00299820001237,142.50033960002474,142.50033960002474,142.5168028001208,143.03593380004168,f,1,0.5331606999970973,None,,,D43,001,2025-04-05_19h33.54.928,416_EXPERIMENT_PSYCHOPY_AU2220019_AU2220225,2024.1.5,None,2025-04-05 19h34.11.747207 +0530,
fear.jpg,f,7,4,46,0,143.05398080009036,,,,,,,,,,,,,,,,143.03720840020105,143.05398080009036,144.5476238001138,144.5476238001138,144.56529980013147,145.03225070005283,f,1,0.47603469993919134,None,,,D43,001,2025-04-05_19h33.54.928,416_EXPERIMENT_PSYCHOPY_AU2220019_AU2220225,2024.1.5,None,2025-04-05 19h34.11.747207 +0530,
surprise_upper_blur.jpg,s,7,5,47,4,145.0488398000598,,,,,,,,,,,,,,,,145.03354020020925,145.0488398000598,146.54641080019064,146.54641080019064,146.56278290017508,147.11440500011668,s,1,0.5519139999523759,None,,,D43,001,2025-04-05_19h33.54.928,416_EXPERIMENT_PSYCHOPY_AU2220019_AU2220225,2024.1.5,None,2025-04-05 19h34.11.747207 +0530,
fear_upper_blur.jpg,f,8,0,48,2,147.13095080014318,,,,,,,,,,,,,,,,147.11591170006432,147.13095080014318,148.62700070021674,148.62700070021674,148.64438720000908,149.34520470001735,s,0,0.7109027998521924,None,,,D43,001,2025-04-05_19h33.54.928,416_EXPERIMENT_PSYCHOPY_AU2220019_AU2220225,2024.1.5,None,2025-04-05 19h34.11.747207 +0530,
surprise_upper_blur.jpg,s,8,1,49,4,149.3619481001515,,,,,,,,,,,,,,,,149.34668080019765,149.3619481001515,150.85850100009702,150.85850100009702,150.87576530012302,151.59297350002453,None,0,,,151.6097868999932,151.6097868999932,D43,001,2025-04-05_19h33.54.928,416_EXPERIMENT_PSYCHOPY_AU2220019_AU2220225,2024.1.5,None,2025-04-05 19h34.11.747207 +0530,
fear.jpg,f,8,2,50,0,151.6097868999932,,,,,,,,,,,,,,,,151.59411050006747,151.6097868999932,153.10600790008903,153.10600790008903,153.12387340003625,153.74126969999634,f,1,0.6241528999526054,None,,,D43,001,2025-04-05_19h33.54.928,416_EXPERIMENT_PSYCHOPY_AU2220019_AU2220225,2024.1.5,None,2025-04-05 19h34.11.747207 +0530,
fear_lower_blur.jpg,f,8,3,51,3,153.75760640017688,,,,,,,,,,,,,,,,153.74269370012917,153.75760640017688,155.25489370012656,155.25489370012656,155.27063470007852,155.77411840017885,f,1,0.5170807999093086,None,,,D43,001,2025-04-05_19h33.54.928,416_EXPERIMENT_PSYCHOPY_AU2220019_AU2220225,2024.1.5,None,2025-04-05 19h34.11.747207 +0530,
surprise_lower_blur.jpg,s,8,4,52,5,155.79314740002155,,,,,,,,,,,,,,,,155.77587170014158,155.79314740002155,157.28549300017767,157.28549300017767,157.30250580003485,157.85447360016406,s,1,0.560624600155279,None,,,D43,001,2025-04-05_19h33.54.928,416_EXPERIMENT_PSYCHOPY_AU2220019_AU2220225,2024.1.5,None,2025-04-05 19h34.11.747207 +0530,
surprise.jpg,s,8,5,53,1,157.87191540002823,,,,,,,,,,,,,,,,157.8558302000165,157.87191540002823,159.36628930014558,159.36628930014558,159.3841538000852,159.8849582001567,s,1,0.5049737000372261,None,,,D43,001,2025-04-05_19h33.54.928,416_EXPERIMENT_PSYCHOPY_AU2220019_AU2220225,2024.1.5,None,2025-04-05 19h34.11.747207 +0530,
fear_upper_blur.jpg,f,9,0,54,2,159.90213150018826,,,,,,,,,,,,,,,,159.88636370003223,159.90213150018826,161.39785520010628,161.39785520010628,161.4156529000029,162.06712570018135,s,0,0.6658737999387085,None,,,D43,001,2025-04-05_19h33.54.928,416_EXPERIMENT_PSYCHOPY_AU2220019_AU2220225,2024.1.5,None,2025-04-05 19h34.11.747207 +0530,
surprise.jpg,s,9,1,55,1,162.08467660006136,,,,,,,,,,,,,,,,162.0684083001688,162.08467660006136,163.57999630016275,163.57999630016275,163.59632270014845,164.099261400057,s,1,0.5136725998017937,None,,,D43,001,2025-04-05_19h33.54.928,416_EXPERIMENT_PSYCHOPY_AU2220019_AU2220225,2024.1.5,None,2025-04-05 19h34.11.747207 +0530,
surprise_lower_blur.jpg,s,9,2,56,5,164.11595650017262,,,,,,,,,,,,,,,,164.10084640001878,164.11595650017262,165.61112360004336,165.61112360004336,165.62731470004655,166.1293029000517,s,1,0.5101718998048455,None,,,D43,001,2025-04-05_19h33.54.928,416_EXPERIMENT_PSYCHOPY_AU2220019_AU2220225,2024.1.5,None,2025-04-05 19h34.11.747207 +0530,
surprise_upper_blur.jpg,s,9,3,57,4,166.1456733001396,,,,,,,,,,,,,,,,166.1308876001276,166.1456733001396,167.6422443999909,167.6422443999909,167.65875650011003,168.30806300020777,s,1,0.6586104999296367,None,,,D43,001,2025-04-05_19h33.54.928,416_EXPERIMENT_PSYCHOPY_AU2220019_AU2220225,2024.1.5,None,2025-04-05 19h34.11.747207 +0530,
fear_lower_blur.jpg,f,9,4,58,3,168.32313620019704,,,,,,,,,,,,,,,,168.30906200013123,168.32313620019704,169.82394980010577,169.82394980010577,169.82394980010577,170.3249691000674,f,1,0.4932618997991085,None,,,D43,001,2025-04-05_19h33.54.928,416_EXPERIMENT_PSYCHOPY_AU2220019_AU2220225,2024.1.5,None,2025-04-05 19h34.11.747207 +0530,
fear.jpg,f,9,5,59,0,170.34198470017873,,,,,,,,,,,,,,,,170.32633120007813,170.34198470017873,171.83816300006583,171.83816300006583,171.8558028000407,172.28953690011986,f,1,0.4429772000294179,None,,,D43,001,2025-04-05_19h33.54.928,416_EXPERIMENT_PSYCHOPY_AU2220019_AU2220225,2024.1.5,None,2025-04-05 19h34.11.747207 +0530,
fear.jpg,f,10,0,60,0,172.3061266001314,,,,,,,,,,,,,,,,172.29071430000477,172.3061266001314,173.80269760009833,173.80269760009833,173.81990460003726,174.28785490011796,f,1,0.4761419999413192,None,,,D43,001,2025-04-05_19h33.54.928,416_EXPERIMENT_PSYCHOPY_AU2220019_AU2220225,2024.1.5,None,2025-04-05 19h34.11.747207 +0530,
fear_upper_blur.jpg,f,10,1,61,2,174.3055517000612,,,,,,,,,,,,,,,,174.2893753000535,174.3055517000612,175.80026799999177,175.80026799999177,175.81722560012713,176.2205495000817,f,1,0.41634540003724396,None,,,D43,001,2025-04-05_19h33.54.928,416_EXPERIMENT_PSYCHOPY_AU2220019_AU2220225,2024.1.5,None,2025-04-05 19h34.11.747207 +0530,
surprise_lower_blur.jpg,s,10,2,62,5,176.23814380005933,,,,,,,,,,,,,,,,176.22244870010763,176.23814380005933,177.73206320009194,177.73206320009194,177.74905139999464,178.28432530001737,s,1,0.5349379999097437,None,,,D43,001,2025-04-05_19h33.54.928,416_EXPERIMENT_PSYCHOPY_AU2220019_AU2220225,2024.1.5,None,2025-04-05 19h34.11.747207 +0530,
surprise.jpg,s,10,3,63,1,178.30113270017318,,,,,,,,,,,,,,,,178.28567280014977,178.30113270017318,179.79711140017025,179.79711140017025,179.81359440018423,180.46555690001696,s,1,0.6511592001188546,None,,,D43,001,2025-04-05_19h33.54.928,416_EXPERIMENT_PSYCHOPY_AU2220019_AU2220225,2024.1.5,None,2025-04-05 19h34.11.747207 +0530,
fear_lower_blur.jpg,f,10,4,64,3,180.4841399001889,,,,,,,,,,,,,,,,180.46717840014026,180.4841399001889,181.97813960001804,181.97813960001804,181.99539380008355,182.63108060020022,f,1,0.649039100157097,None,,,D43,001,2025-04-05_19h33.54.928,416_EXPERIMENT_PSYCHOPY_AU2220019_AU2220225,2024.1.5,None,2025-04-05 19h34.11.747207 +0530,
surprise_upper_blur.jpg,s,10,5,65,4,182.64879540004767,,,,,,,,,,,,,,,,182.63285380019806,182.64879540004767,184.1432669002097,184.1432669002097,184.1593139001634,184.84347720001824,s,1,0.6893129998352379,None,,,D43,001,2025-04-05_19h33.54.928,416_EXPERIMENT_PSYCHOPY_AU2220019_AU2220225,2024.1.5,None,2025-04-05 19h34.11.747207 +0530,
surprise.jpg,s,11,0,66,1,184.86094330018386,,,,,,,,,,,,,,,,184.84486160008237,184.86094330018386,186.35722770006396,186.35722770006396,186.37462210003287,187.04138810001314,s,1,0.6670090998522937,None,,,D43,001,2025-04-05_19h33.54.928,416_EXPERIMENT_PSYCHOPY_AU2220019_AU2220225,2024.1.5,None,2025-04-05 19h34.11.747207 +0530,
fear_lower_blur.jpg,f,11,1,67,3,187.05664810002781,,,,,,,,,,,,,,,,187.0427349000238,187.05664810002781,188.55548380012624,188.55548380012624,188.57185730012134,189.1905457000248,f,1,0.63214570004493,None,,,D43,001,2025-04-05_19h33.54.928,416_EXPERIMENT_PSYCHOPY_AU2220019_AU2220225,2024.1.5,None,2025-04-05 19h34.11.747207 +0530,
fear_upper_blur.jpg,f,11,2,68,2,189.2075583001133,,,,,,,,,,,,,,,,189.19200060004368,189.2075583001133,190.7029481001664,190.7029481001664,190.72016130015254,191.43708230019547,None,0,,,191.45398220000789,191.45398220000789,D43,001,2025-04-05_19h33.54.928,416_EXPERIMENT_PSYCHOPY_AU2220019_AU2220225,2024.1.5,None,2025-04-05 19h34.11.747207 +0530,
fear.jpg,f,11,3,69,0,191.45398220000789,,,,,,,,,,,,,,,,191.43819020013325,191.45398220000789,192.9503270999994,192.9503270999994,192.96760020009242,193.50248370016925,f,1,0.5445665000006557,None,,,D43,001,2025-04-05_19h33.54.928,416_EXPERIMENT_PSYCHOPY_AU2220019_AU2220225,2024.1.5,None,2025-04-05 19h34.11.747207 +0530,
surprise_lower_blur.jpg,s,11,4,70,5,193.51984790014103,,,,,,,,,,,,,,,,193.50393000012264,193.51984790014103,195.0142685000319,195.0142685000319,195.03085190011188,195.48323290003464,s,1,0.4544481001794338,None,,,D43,001,2025-04-05_19h33.54.928,416_EXPERIMENT_PSYCHOPY_AU2220019_AU2220225,2024.1.5,None,2025-04-05 19h34.11.747207 +0530,
surprise_upper_blur.jpg,s,11,5,71,4,195.50056360010058,,,,,,,,,,,,,,,,195.48453840008005,195.50056360010058,196.99701500008814,196.99701500008814,197.01339710014872,197.6147819000762,s,1,0.6096223001368344,None,,,D43,001,2025-04-05_19h33.54.928,416_EXPERIMENT_PSYCHOPY_AU2220019_AU2220225,2024.1.5,None,2025-04-05 19h34.11.747207 +0530,
fear.jpg,f,12,0,72,0,197.6322389000561,,,,,,,,,,,,,,,,197.61619080021046,197.6322389000561,199.12780430004932,199.12780430004932,199.14520680019632,199.71316270017996,f,1,0.5807960000820458,None,,,D43,001,2025-04-05_19h33.54.928,416_EXPERIMENT_PSYCHOPY_AU2220019_AU2220225,2024.1.5,None,2025-04-05 19h34.11.747207 +0530,
fear_upper_blur.jpg,f,12,1,73,2,199.73111600009724,,,,,,,,,,,,,,,,199.71474430011585,199.73111600009724,201.2259066000115,201.2259066000115,201.2428147001192,201.72859260020778,f,1,0.49638720019720495,None,,,D43,001,2025-04-05_19h33.54.928,416_EXPERIMENT_PSYCHOPY_AU2220019_AU2220225,2024.1.5,None,2025-04-05 19h34.11.747207 +0530,
surprise.jpg,s,12,2,74,1,201.748199300142,,,,,,,,,,,,,,,,201.73027360020205,201.748199300142,203.24102760013193,203.24102760013193,203.2576708002016,203.77535120001994,s,1,0.532141299918294,None,,,D43,001,2025-04-05_19h33.54.928,416_EXPERIMENT_PSYCHOPY_AU2220019_AU2220225,2024.1.5,None,2025-04-05 19h34.11.747207 +0530,
fear_lower_blur.jpg,f,12,3,75,3,203.7908063000068,,,,,,,,,,,,,,,,203.7767619001679,203.7908063000068,205.28838510019705,205.28838510019705,205.30556480004452,205.92335990001447,f,1,0.6243832998443395,None,,,D43,001,2025-04-05_19h33.54.928,416_EXPERIMENT_PSYCHOPY_AU2220019_AU2220225,2024.1.5,None,2025-04-05 19h34.11.747207 +0530,
surprise_upper_blur.jpg,s,12,4,76,4,205.93987900018692,,,,,,,,,,,,,,,,205.92475660005584,205.93987900018692,207.43606760003604,207.43606760003604,207.45368640008382,208.0545342999976,s,1,0.6103970999829471,None,,,D43,001,2025-04-05_19h33.54.928,416_EXPERIMENT_PSYCHOPY_AU2220019_AU2220225,2024.1.5,None,2025-04-05 19h34.11.747207 +0530,
surprise_lower_blur.jpg,s,12,5,77,5,208.07105190004222,,,,,,,,,,,,,,,,208.05593090015464,208.07105190004222,209.56789200007915,209.56789200007915,209.58476770017296,210.10216950019822,s,1,0.5199176999740303,None,,,D43,001,2025-04-05_19h33.54.928,416_EXPERIMENT_PSYCHOPY_AU2220019_AU2220225,2024.1.5,None,2025-04-05 19h34.11.747207 +0530,
fear_upper_blur.jpg,f,13,0,78,2,210.11955910013057,,,,,,,,,,,,,,,,210.10373289999552,210.11955910013057,211.61590960016474,211.61590960016474,211.63266540016048,212.18420320004225,f,1,0.5655374999623746,None,,,D43,001,2025-04-05_19h33.54.928,416_EXPERIMENT_PSYCHOPY_AU2220019_AU2220225,2024.1.5,None,2025-04-05 19h34.11.747207 +0530,
surprise.jpg,s,13,1,79,1,212.2014656001702,,,,,,,,,,,,,,,,212.1859213002026,212.2014656001702,213.6967539000325,213.6967539000325,213.71363420016132,214.2983421999961,s,1,0.5865803000051528,None,,,D43,001,2025-04-05_19h33.54.928,416_EXPERIMENT_PSYCHOPY_AU2220019_AU2220225,2024.1.5,None,2025-04-05 19h34.11.747207 +0530,
fear.jpg,f,13,2,80,0,214.31544220005162,,,,,,,,,,,,,,,,214.29958480014466,214.31544220005162,215.8109725001268,215.8109725001268,215.82804749999195,216.3799443000462,f,1,0.5525167000014335,None,,,D43,001,2025-04-05_19h33.54.928,416_EXPERIMENT_PSYCHOPY_AU2220019_AU2220225,2024.1.5,None,2025-04-05 19h34.11.747207 +0530,
surprise_lower_blur.jpg,s,13,3,81,5,216.39702580007724,,,,,,,,,,,,,,,,216.38146320008673,216.39702580007724,217.89318940020166,217.89318940020166,217.90981149999425,218.47752850013785,s,1,0.5720038001891226,None,,,D43,001,2025-04-05_19h33.54.928,416_EXPERIMENT_PSYCHOPY_AU2220019_AU2220225,2024.1.5,None,2025-04-05 19h34.11.747207 +0530,
surprise_upper_blur.jpg,s,13,4,82,4,218.49303790018894,,,,,,,,,,,,,,,,218.47875140001997,218.49303790018894,219.99105930002406,219.99105930002406,220.00722480006516,220.55894520017318,s,1,0.5514174001291394,None,,,D43,001,2025-04-05_19h33.54.928,416_EXPERIMENT_PSYCHOPY_AU2220019_AU2220225,2024.1.5,None,2025-04-05 19h34.11.747207 +0530,
fear_lower_blur.jpg,f,13,5,83,3,220.57516190013848,,,,,,,,,,,,,,,,220.5605358001776,220.57516190013848,222.07234810013324,222.07234810013324,222.08841320010833,222.68991910014302,f,1,0.6153167998418212,None,,,D43,001,2025-04-05_19h33.54.928,416_EXPERIMENT_PSYCHOPY_AU2220019_AU2220225,2024.1.5,None,2025-04-05 19h34.11.747207 +0530,
fear.jpg,f,14,0,84,0,222.7072685000021,,,,,,,,,,,,,,,,222.69146390003152,222.7072685000021,224.20329850004055,224.20329850004055,224.21960130007938,224.78814860014245,f,1,0.5832460999954492,None,,,D43,001,2025-04-05_19h33.54.928,416_EXPERIMENT_PSYCHOPY_AU2220019_AU2220225,2024.1.5,None,2025-04-05 19h34.11.747207 +0530,
fear_upper_blur.jpg,f,14,1,85,2,224.80519330012612,,,,,,,,,,,,,,,,224.7893448001705,224.80519330012612,226.3014804001432,226.3014804001432,226.3181141000241,227.03864790010266,None,0,,,227.05501000001095,227.05501000001095,D43,001,2025-04-05_19h33.54.928,416_EXPERIMENT_PSYCHOPY_AU2220019_AU2220225,2024.1.5,None,2025-04-05 19h34.11.747207 +0530,
surprise_lower_blur.jpg,s,14,2,86,5,227.05501000001095,,,,,,,,,,,,,,,,227.0401911002118,227.05501000001095,228.5493270000443,228.5493270000443,228.56594280013815,229.03489840007387,s,1,0.482350500067696,None,,,D43,001,2025-04-05_19h33.54.928,416_EXPERIMENT_PSYCHOPY_AU2220019_AU2220225,2024.1.5,None,2025-04-05 19h34.11.747207 +0530,
surprise.jpg,s,14,3,87,1,229.05295530008152,,,,,,,,,,,,,,,,229.0362490999978,229.05295530008152,230.54735370003618,230.54735370003618,230.56410900014453,231.09965770016424,s,1,0.5444745998829603,None,,,D43,001,2025-04-05_19h33.54.928,416_EXPERIMENT_PSYCHOPY_AU2220019_AU2220225,2024.1.5,None,2025-04-05 19h34.11.747207 +0530,
fear_lower_blur.jpg,f,14,4,88,3,231.11899440013804,,,,,,,,,,,,,,,,231.10122940014116,231.11899440013804,232.61157930013724,232.61157930013724,232.62823020014912,233.11422730004415,s,0,0.4952455998864025,None,,,D43,001,2025-04-05_19h33.54.928,416_EXPERIMENT_PSYCHOPY_AU2220019_AU2220225,2024.1.5,None,2025-04-05 19h34.11.747207 +0530,
surprise_upper_blur.jpg,s,14,5,89,4,233.13355670007877,,,,,,,,,,,,,,,,233.11584770004265,233.13355670007877,234.62555410014465,234.62555410014465,234.6431844001636,235.07840400002897,s,1,0.442265999969095,None,,,D43,001,2025-04-05_19h33.54.928,416_EXPERIMENT_PSYCHOPY_AU2220019_AU2220225,2024.1.5,None,2025-04-05 19h34.11.747207 +0530,
fear_lower_blur.jpg,f,15,0,90,3,235.10627770004794,,,,,,,,,,,,,,,,235.0799915001262,235.10627770004794,236.59098680014722,236.59098680014722,236.60762420017272,237.24352350016125,f,1,0.647627400001511,None,,,D43,001,2025-04-05_19h33.54.928,416_EXPERIMENT_PSYCHOPY_AU2220019_AU2220225,2024.1.5,None,2025-04-05 19h34.11.747207 +0530,
surprise.jpg,s,15,1,91,1,237.2616282000672,,,,,,,,,,,,,,,,237.24492040020414,237.2616282000672,238.75601610005833,238.75601610005833,238.77135260007344,239.27512820018455,s,1,0.5139320001471788,None,,,D43,001,2025-04-05_19h33.54.928,416_EXPERIMENT_PSYCHOPY_AU2220019_AU2220225,2024.1.5,None,2025-04-05 19h34.11.747207 +0530,
surprise_upper_blur.jpg,s,15,2,92,4,239.2929124000948,,,,,,,,,,,,,,,,239.2766962000169,239.2929124000948,240.78639730019495,240.78639730019495,240.80321470019408,241.2562027000822,s,1,0.4638189000543207,None,,,D43,001,2025-04-05_19h33.54.928,416_EXPERIMENT_PSYCHOPY_AU2220019_AU2220225,2024.1.5,None,2025-04-05 19h34.11.747207 +0530,
surprise_lower_blur.jpg,s,15,3,93,5,241.27417840017006,,,,,,,,,,,,,,,,241.25781209999695,241.27417840017006,242.7684268001467,242.7684268001467,242.78487940016203,243.33746900013648,s,1,0.5629949998110533,None,,,D43,001,2025-04-05_19h33.54.928,416_EXPERIMENT_PSYCHOPY_AU2220019_AU2220225,2024.1.5,None,2025-04-05 19h34.11.747207 +0530,
fear_upper_blur.jpg,f,15,4,94,2,243.35472920001484,,,,,,,,,,,,,,,,243.33878049999475,243.35472920001484,244.84958520019427,244.84958520019427,244.8663899002131,245.51902270014398,f,1,0.665963500039652,None,,,D43,001,2025-04-05_19h33.54.928,416_EXPERIMENT_PSYCHOPY_AU2220019_AU2220225,2024.1.5,None,2025-04-05 19h34.11.747207 +0530,
fear.jpg,f,15,5,95,0,245.53755590016954,,,,,,,,,,,,,,,,245.52089710021392,245.53755590016954,247.029917600099,247.029917600099,247.04783650022,247.4834915001411,f,1,0.44706339994445443,None,,,D43,001,2025-04-05_19h33.54.928,416_EXPERIMENT_PSYCHOPY_AU2220019_AU2220225,2024.1.5,None,2025-04-05 19h34.11.747207 +0530,
fear_lower_blur.jpg,f,16,0,96,3,247.50314040016383,,,,,,,,,,,,,,,,247.48529530013911,247.50314040016383,248.9956793000456,248.9956793000456,249.01303460006602,249.52976920013316,f,1,0.524281500140205,None,,,D43,001,2025-04-05_19h33.54.928,416_EXPERIMENT_PSYCHOPY_AU2220019_AU2220225,2024.1.5,None,2025-04-05 19h34.11.747207 +0530,
surprise.jpg,s,16,1,97,1,249.54558690008707,,,,,,,,,,,,,,,,249.53118000016548,249.54558690008707,251.04341220017523,251.04341220017523,251.06075380020775,251.57859630021267,s,1,0.5261699999682605,None,,,D43,001,2025-04-05_19h33.54.928,416_EXPERIMENT_PSYCHOPY_AU2220019_AU2220225,2024.1.5,None,2025-04-05 19h34.11.747207 +0530,
fear_upper_blur.jpg,f,16,2,98,2,251.59548910008743,,,,,,,,,,,,,,,,251.57996780006215,251.59548910008743,253.09162500011735,253.09162500011735,253.10797380004078,253.64434560015798,s,0,0.5505711999721825,None,,,D43,001,2025-04-05_19h33.54.928,416_EXPERIMENT_PSYCHOPY_AU2220019_AU2220225,2024.1.5,None,2025-04-05 19h34.11.747207 +0530,
surprise_lower_blur.jpg,s,16,3,99,5,253.6626418000087,,,,,,,,,,,,,,,,253.64611970004626,253.6626418000087,255.15608109999448,255.15608109999448,255.1732947002165,255.52467700000852,s,1,0.3554060000460595,None,,,D43,001,2025-04-05_19h33.54.928,416_EXPERIMENT_PSYCHOPY_AU2220019_AU2220225,2024.1.5,None,2025-04-05 19h34.11.747207 +0530,
surprise_upper_blur.jpg,s,16,4,100,4,255.54139970010146,,,,,,,,,,,,,,,,255.52594409999438,255.54139970010146,257.03711190004833,257.03711190004833,257.0547525000293,257.4726829000283,s,1,0.4274959999602288,None,,,D43,001,2025-04-05_19h33.54.928,416_EXPERIMENT_PSYCHOPY_AU2220019_AU2220225,2024.1.5,None,2025-04-05 19h34.11.747207 +0530,
fear.jpg,f,16,5,101,0,257.4901631001849,,,,,,,,,,,,,,,,257.47413840005174,257.4901631001849,258.98563290014863,258.98563290014863,259.0030745000113,259.5375009002164,f,1,0.5401732998434454,None,,,D43,001,2025-04-05_19h33.54.928,416_EXPERIMENT_PSYCHOPY_AU2220019_AU2220225,2024.1.5,None,2025-04-05 19h34.11.747207 +0530,
surprise_upper_blur.jpg,s,17,0,102,4,259.55468150018714,,,,,,,,,,,,,,,,259.5389463000465,259.55468150018714,261.0506235000212,261.0506235000212,261.06730630015954,261.56849279999733,s,1,0.504973400151357,None,,,D43,001,2025-04-05_19h33.54.928,416_EXPERIMENT_PSYCHOPY_AU2220019_AU2220225,2024.1.5,None,2025-04-05 19h34.11.747207 +0530,
fear_lower_blur.jpg,f,17,1,103,3,261.58479590015486,,,,,,,,,,,,,,,,261.5698719001375,261.58479590015486,263.08260400011204,263.08260400011204,263.09868330019526,263.76677390001714,f,1,0.6713383998721838,None,,,D43,001,2025-04-05_19h33.54.928,416_EXPERIMENT_PSYCHOPY_AU2220019_AU2220225,2024.1.5,None,2025-04-05 19h34.11.747207 +0530,
surprise_lower_blur.jpg,s,17,2,104,5,263.78886420000345,,,,,,,,,,,,,,,,263.7679135000799,263.78886420000345,265.27991650020704,265.27991650020704,265.2964471001178,265.8809730000794,s,1,0.585230799857527,None,,,D43,001,2025-04-05_19h33.54.928,416_EXPERIMENT_PSYCHOPY_AU2220019_AU2220225,2024.1.5,None,2025-04-05 19h34.11.747207 +0530,
fear_upper_blur.jpg,f,17,3,105,2,265.8978866999969,,,,,,,,,,,,,,,,265.8827280001715,265.8978866999969,267.3944669000339,267.3944669000339,267.41148470016196,267.94571760017425,f,1,0.5455694999545813,None,,,D43,001,2025-04-05_19h33.54.928,416_EXPERIMENT_PSYCHOPY_AU2220019_AU2220225,2024.1.5,None,2025-04-05 19h34.11.747207 +0530,
surprise.jpg,s,17,4,106,1,267.963753500022,,,,,,,,,,,,,,,,267.9472647001967,267.963753500022,269.4586043001618,269.4586043001618,269.4761166002136,269.86136320000514,s,1,0.39704860001802444,None,,,D43,001,2025-04-05_19h33.54.928,416_EXPERIMENT_PSYCHOPY_AU2220019_AU2220225,2024.1.5,None,2025-04-05 19h34.11.747207 +0530,
fear.jpg,f,17,5,107,0,269.88033920014277,,,,,,,,,,,,,,,,269.86274840007536,269.88033920014277,271.3740274000447,271.3740274000447,271.3906462001614,271.8923514999915,f,1,0.5158609999343753,None,,,D43,001,2025-04-05_19h33.54.928,416_EXPERIMENT_PSYCHOPY_AU2220019_AU2220225,2024.1.5,None,2025-04-05 19h34.11.747207 +0530,
fear_upper_blur.jpg,f,18,0,108,2,271.9090922002215,,,,,,,,,,,,,,,,271.8937828000635,271.9090922002215,273.4046314000152,273.4046314000152,273.4217390001286,273.8414086000994,s,0,0.4305758001282811,None,,,D43,001,2025-04-05_19h33.54.928,416_EXPERIMENT_PSYCHOPY_AU2220019_AU2220225,2024.1.5,None,2025-04-05 19h34.11.747207 +0530,
surprise_upper_blur.jpg,s,18,1,109,4,273.8580553000793,,,,,,,,,,,,,,,,273.84334420016967,273.8580553000793,275.3530422002077,275.3530422002077,275.3707507001236,275.80418800003827,f,0,0.44355409988202155,None,,,D43,001,2025-04-05_19h33.54.928,416_EXPERIMENT_PSYCHOPY_AU2220019_AU2220225,2024.1.5,None,2025-04-05 19h34.11.747207 +0530,
surprise.jpg,s,18,2,110,1,275.8189646000974,,,,,,,,,,,,,,,,275.8051362000406,275.8189646000974,277.31855460000224,277.31855460000224,277.31855460000224,277.8710953001864,s,1,0.546713599935174,None,,,D43,001,2025-04-05_19h33.54.928,416_EXPERIMENT_PSYCHOPY_AU2220019_AU2220225,2024.1.5,None,2025-04-05 19h34.11.747207 +0530,
fear.jpg,f,18,3,111,0,277.8890297000762,,,,,,,,,,,,,,,,277.8731494001113,277.8890297000762,279.3833787001204,279.3833787001204,279.3992450002115,279.9672056999989,f,1,0.5745335998944938,None,,,D43,001,2025-04-05_19h33.54.928,416_EXPERIMENT_PSYCHOPY_AU2220019_AU2220225,2024.1.5,None,2025-04-05 19h34.11.747207 +0530,
fear_lower_blur.jpg,f,18,4,112,3,279.9836915000342,,,,,,,,,,,,,,,,279.9685514001176,279.9836915000342,281.4802206000313,281.4802206000313,281.4967456001323,281.94985180022195,f,1,0.4620588000398129,None,,,D43,001,2025-04-05_19h33.54.928,416_EXPERIMENT_PSYCHOPY_AU2220019_AU2220225,2024.1.5,None,2025-04-05 19h34.11.747207 +0530,
surprise_lower_blur.jpg,s,18,5,113,5,281.96977500012144,,,,,,,,,,,,,,,,281.95167040009983,281.96977500012144,283.4619046000298,283.4619046000298,283.4780333000235,284.04799620015547,s,1,0.5816248001065105,None,,,D43,001,2025-04-05_19h33.54.928,416_EXPERIMENT_PSYCHOPY_AU2220019_AU2220225,2024.1.5,None,2025-04-05 19h34.11.747207 +0530,
fear.jpg,f,19,0,114,0,284.06554970005527,,,,,,,,,,,,,,,,284.0494344001636,284.06554970005527,285.5603696000762,285.5603696000762,285.5766641001683,285.96245900006033,f,1,0.39968169992789626,None,,,D43,001,2025-04-05_19h33.54.928,416_EXPERIMENT_PSYCHOPY_AU2220019_AU2220225,2024.1.5,None,2025-04-05 19h34.11.747207 +0530,
fear_upper_blur.jpg,f,19,1,115,2,285.97964640008286,,,,,,,,,,,,,,,,285.96395490015857,285.97964640008286,287.4753441000357,287.4753441000357,287.49210200016387,287.87744539999403,s,0,0.3982830001041293,None,,,D43,001,2025-04-05_19h33.54.928,416_EXPERIMENT_PSYCHOPY_AU2220019_AU2220225,2024.1.5,None,2025-04-05 19h34.11.747207 +0530,
fear_lower_blur.jpg,f,19,2,116,3,287.8986492000986,,,,,,,,,,,,,,,,287.87921560020186,287.8986492000986,289.3892435000744,289.3892435000744,289.4059861002024,289.94067580020055,s,0,0.5409589998889714,None,,,D43,001,2025-04-05_19h33.54.928,416_EXPERIMENT_PSYCHOPY_AU2220019_AU2220225,2024.1.5,None,2025-04-05 19h34.11.747207 +0530,
surprise.jpg,s,19,3,117,1,289.95836230018176,,,,,,,,,,,,,,,,289.94236450013705,289.95836230018176,291.45408220007084,291.45408220007084,291.47142670000903,291.889500600053,s,1,0.42975570005364716,None,,,D43,001,2025-04-05_19h33.54.928,416_EXPERIMENT_PSYCHOPY_AU2220019_AU2220225,2024.1.5,None,2025-04-05 19h34.11.747207 +0530,
surprise_lower_blur.jpg,s,19,4,118,5,291.90677250013687,,,,,,,,,,,,,,,,291.8911844000686,291.90677250013687,293.40178760001436,293.40178760001436,293.4187339001801,293.9191046000924,s,1,0.5019813000690192,None,,,D43,001,2025-04-05_19h33.54.928,416_EXPERIMENT_PSYCHOPY_AU2220019_AU2220225,2024.1.5,None,2025-04-05 19h34.11.747207 +0530,
surprise_upper_blur.jpg,s,19,5,119,4,293.9334906002041,,,,,,,,,,,,,,,,293.9202137000393,293.9334906002041,295.4346686000936,295.4346686000936,295.4346686000936,295.95240330020897,f,0,0.5107771998737007,None,,,D43,001,2025-04-05_19h33.54.928,416_EXPERIMENT_PSYCHOPY_AU2220019_AU2220225,2024.1.5,None,2025-04-05 19h34.11.747207 +0530,
