stimulus_image,correct_response,thisN,thisTrialN,thisRepN,key_resp.keys,key_resp.corr,key_resp.rt,key_resp.duration,loop.thisRepN,loop.thisTrialN,loop.thisN,loop.thisIndex,thisRow.t,notes,guide.started,instructions.started,ins_resp.started,guide.stopped,ins_resp.keys,ins_resp.rt,ins_resp.duration,guide_2.started,text.started,key_resp_2.started,guide_2.stopped,key_resp_2.keys,key_resp_2.rt,key_resp_2.duration,trial.started,fixation.started,image.started,key_resp.started,fixation.stopped,image.stopped,trial.stopped,loop.key_resp.keys,loop.key_resp.corr,loop.key_resp.rt,loop.key_resp.duration,key_resp.stopped,participant,session,date,expName,psychopyVersion,frameRate,expStart,
,,,,,,,,,,,,,,,0.004634700017049909,0.01939260005019605,0.01939260005019605,30.069887300021946,space,29.994950599968433,None,,,,,,,,,,,,,,,,,,,,DH20,106,2025-04-01_14h39.50.331,416_EXPERIMENT_PSYCHOPY_AU2220019_AU2220225,2024.2.4,59.162530686422976,2025-04-01 14h43.22.958756 +0530,
,,,,,,,,,,,,,,,,,,,,,,30.069975499995053,30.07702670013532,30.07702670013532,34.56229820009321,space,4.472678899997845,None,,,,,,,,,,,,,DH20,106,2025-04-01_14h39.50.331,416_EXPERIMENT_PSYCHOPY_AU2220019_AU2220225,2024.2.4,59.162530686422976,2025-04-01 14h43.22.958756 +0530,
surprise_lower_blur.jpg,s,0,0,0,f,0,0.5489990999922156,None,0,0,0,5,34.68411880009808,,,,,,,,,,,,,,,,34.6780574999284,34.68411880009808,36.074846599949524,36.074846599949524,36.194238000083715,36.57739430014044,36.62979410006665,f,0,0.5489990999922156,None,,DH20,106,2025-04-01_14h39.50.331,416_EXPERIMENT_PSYCHOPY_AU2220019_AU2220225,2024.2.4,59.162530686422976,2025-04-01 14h43.22.958756 +0530,
surprise.jpg,s,1,1,0,f,0,0.5089996000751853,None,0,1,1,1,36.64817519998178,,,,,,,,,,,,,,,,36.64276760001667,36.64817519998178,38.12936479994096,38.12936479994096,38.162876500049606,38.62889420008287,38.64750860002823,f,0,0.5089996000751853,None,,DH20,106,2025-04-01_14h39.50.331,416_EXPERIMENT_PSYCHOPY_AU2220019_AU2220225,2024.2.4,59.162530686422976,2025-04-01 14h43.22.958756 +0530,
surprise_upper_blur.jpg,s,2,2,0,s,1,0.6650900999084115,None,0,2,2,4,38.666572000132874,,,,,,,,,,,,,,,,38.661050900118425,38.666572000132874,40.16210480011068,40.16210480011068,40.1772374000866,40.66280369996093,40.83180500008166,s,1,0.6650900999084115,None,,DH20,106,2025-04-01_14h39.50.331,416_EXPERIMENT_PSYCHOPY_AU2220019_AU2220225,2024.2.4,59.162530686422976,2025-04-01 14h43.22.958756 +0530,
fear_upper_blur.jpg,f,3,3,0,s,0,0.5453977000433952,None,0,3,3,2,40.84779669996351,,,,,,,,,,,,,,,,40.84207440004684,40.84779669996351,42.34508160012774,42.34508160012774,42.36227450007573,42.8458708000835,42.8979819000233,s,0,0.5453977000433952,None,,DH20,106,2025-04-01_14h39.50.331,416_EXPERIMENT_PSYCHOPY_AU2220019_AU2220225,2024.2.4,59.162530686422976,2025-04-01 14h43.22.958756 +0530,
fear.jpg,f,4,4,0,s,0,0.6720201999414712,None,0,4,4,0,42.91701680002734,,,,,,,,,,,,,,,,42.911754300119355,42.91701680002734,44.41255020000972,44.41255020000972,44.429468899965286,44.91244330001064,45.09808439994231,s,0,0.6720201999414712,None,,DH20,106,2025-04-01_14h39.50.331,416_EXPERIMENT_PSYCHOPY_AU2220019_AU2220225,2024.2.4,59.162530686422976,2025-04-01 14h43.22.958756 +0530,
fear_lower_blur.jpg,f,5,5,0,None,0,,,0,5,5,3,45.11690889997408,,,,,,,,,,,,,,,,45.11145840003155,45.11690889997408,46.61273190006614,46.61273190006614,46.62947389995679,47.12821769993752,47.361129200086,None,0,,,,DH20,106,2025-04-01_14h39.50.331,416_EXPERIMENT_PSYCHOPY_AU2220019_AU2220225,2024.2.4,59.162530686422976,2025-04-01 14h43.22.958756 +0530,
fear_lower_blur.jpg,f,6,0,1,f,1,0.6428263999987394,None,1,0,6,3,47.379537699976936,,,,,,,,,,,,,,,,47.37376600014977,47.379537699976936,48.86041730013676,48.86041730013676,48.89592229994014,49.360711799934506,49.51424070005305,f,1,0.6428263999987394,None,,DH20,106,2025-04-01_14h39.50.331,416_EXPERIMENT_PSYCHOPY_AU2220019_AU2220225,2024.2.4,59.162530686422976,2025-04-01 14h43.22.958756 +0530,
surprise.jpg,s,7,1,1,s,1,0.6123603000305593,None,1,1,7,1,49.53287769993767,,,,,,,,,,,,,,,,49.52758460002951,49.53287769993767,51.02974719996564,51.02974719996564,51.04586980002932,51.546008199919015,51.648431699955836,s,1,0.6123603000305593,None,,DH20,106,2025-04-01_14h39.50.331,416_EXPERIMENT_PSYCHOPY_AU2220019_AU2220225,2024.2.4,59.162530686422976,2025-04-01 14h43.22.958756 +0530,
surprise_upper_blur.jpg,s,8,2,1,None,0,,,1,2,8,4,51.66698720003478,,,,,,,,,,,,,,,,51.66142060002312,51.66698720003478,53.16255520004779,53.16255520004779,53.179432299919426,53.66204580012709,53.89769320003688,None,0,,,53.916656400077045,DH20,106,2025-04-01_14h39.50.331,416_EXPERIMENT_PSYCHOPY_AU2220019_AU2220225,2024.2.4,59.162530686422976,2025-04-01 14h43.22.958756 +0530,
fear.jpg,f,9,3,1,None,0,,,1,3,9,0,53.916656400077045,,,,,,,,,,,,,,,,53.91198470001109,53.916656400077045,55.41257810010575,55.41257810010575,55.42877579992637,55.911231300095096,56.16268189996481,None,0,,,,DH20,106,2025-04-01_14h39.50.331,416_EXPERIMENT_PSYCHOPY_AU2220019_AU2220225,2024.2.4,59.162530686422976,2025-04-01 14h43.22.958756 +0530,
surprise_lower_blur.jpg,s,10,4,1,None,0,,,1,4,10,5,56.18042999994941,,,,,,,,,,,,,,,,56.17490510013886,56.18042999994941,57.661437599919736,57.661437599919736,57.69580290000886,58.16184650012292,58.39686400000937,None,0,,,58.412354700034484,DH20,106,2025-04-01_14h39.50.331,416_EXPERIMENT_PSYCHOPY_AU2220019_AU2220225,2024.2.4,59.162530686422976,2025-04-01 14h43.22.958756 +0530,
fear_upper_blur.jpg,f,11,5,1,None,0,,,1,5,11,2,58.412354700034484,,,,,,,,,,,,,,,,58.40744900004938,58.412354700034484,59.91333300014958,59.91333300014958,59.91333300014958,60.413568400079384,60.6479766999837,None,0,,,60.6661859001033,DH20,106,2025-04-01_14h39.50.331,416_EXPERIMENT_PSYCHOPY_AU2220019_AU2220225,2024.2.4,59.162530686422976,2025-04-01 14h43.22.958756 +0530,
fear_lower_blur.jpg,f,12,0,2,f,1,0.6618045999202877,None,2,0,12,3,60.6661859001033,,,,,,,,,,,,,,,,60.66096180002205,60.6661859001033,62.1617570000235,62.1617570000235,62.178031499963254,62.66303619998507,62.8316820000764,f,1,0.6618045999202877,None,,DH20,106,2025-04-01_14h39.50.331,416_EXPERIMENT_PSYCHOPY_AU2220019_AU2220225,2024.2.4,59.162530686422976,2025-04-01 14h43.22.958756 +0530,
surprise_upper_blur.jpg,s,13,1,2,None,0,,,2,1,13,4,62.85055690002628,,,,,,,,,,,,,,,,62.84475450008176,62.85055690002628,64.34463019995019,64.34463019995019,64.36293629999273,64.84430050011724,65.08101830002852,None,0,,,65.10023660003208,DH20,106,2025-04-01_14h39.50.331,416_EXPERIMENT_PSYCHOPY_AU2220019_AU2220225,2024.2.4,59.162530686422976,2025-04-01 14h43.22.958756 +0530,
surprise.jpg,s,14,2,2,None,0,,,2,2,14,1,65.10023660003208,,,,,,,,,,,,,,,,65.09494630014524,65.10023660003208,66.59465380012989,66.59465380012989,66.61160980002023,67.09642880014144,67.32883589994162,None,0,,,67.34681309992447,DH20,106,2025-04-01_14h39.50.331,416_EXPERIMENT_PSYCHOPY_AU2220019_AU2220225,2024.2.4,59.162530686422976,2025-04-01 14h43.22.958756 +0530,
fear.jpg,f,15,3,2,None,0,,,2,3,15,0,67.34681309992447,,,,,,,,,,,,,,,,67.34188170009293,67.34681309992447,68.84685240010731,68.84685240010731,68.84685240010731,69.34658950008452,69.58142159995623,None,0,,,69.60057349991985,DH20,106,2025-04-01_14h39.50.331,416_EXPERIMENT_PSYCHOPY_AU2220019_AU2220225,2024.2.4,59.162530686422976,2025-04-01 14h43.22.958756 +0530,
surprise_lower_blur.jpg,s,16,4,2,None,0,,,2,4,16,5,69.60057349991985,,,,,,,,,,,,,,,,69.59497760003433,69.60057349991985,71.09398979996331,71.09398979996331,71.11200650013052,71.59458769997582,71.83114610007033,None,0,,,71.84891010005958,DH20,106,2025-04-01_14h39.50.331,416_EXPERIMENT_PSYCHOPY_AU2220019_AU2220225,2024.2.4,59.162530686422976,2025-04-01 14h43.22.958756 +0530,
fear_upper_blur.jpg,f,17,5,2,None,0,,,2,5,17,2,71.84891010005958,,,,,,,,,,,,,,,,71.84377959999256,71.84891010005958,73.34630950004794,73.34630950004794,73.36169739998877,73.84614080004394,74.08118360000663,None,0,,,74.0998979001306,DH20,106,2025-04-01_14h39.50.331,416_EXPERIMENT_PSYCHOPY_AU2220019_AU2220225,2024.2.4,59.162530686422976,2025-04-01 14h43.22.958756 +0530,
fear_lower_blur.jpg,f,18,0,3,None,0,,,3,0,18,3,74.0998979001306,,,,,,,,,,,,,,,,74.09443569998257,74.0998979001306,75.59684829995967,75.59684829995967,75.6131092000287,76.09672789997421,76.33136730012484,None,0,,,76.34981520008296,DH20,106,2025-04-01_14h39.50.331,416_EXPERIMENT_PSYCHOPY_AU2220019_AU2220225,2024.2.4,59.162530686422976,2025-04-01 14h43.22.958756 +0530,
surprise_upper_blur.jpg,s,19,1,3,None,0,,,3,1,19,4,76.34981520008296,,,,,,,,,,,,,,,,76.34467840008438,76.34981520008296,77.84655030001886,77.84655030001886,77.86296680010855,78.36043290002272,78.59597930009477,None,0,,,,DH20,106,2025-04-01_14h39.50.331,416_EXPERIMENT_PSYCHOPY_AU2220019_AU2220225,2024.2.4,59.162530686422976,2025-04-01 14h43.22.958756 +0530,
surprise.jpg,s,20,2,3,None,0,,,3,2,20,1,78.6136942000594,,,,,,,,,,,,,,,,78.60884730005637,78.6136942000594,80.0964057999663,80.0964057999663,80.1131444000639,80.59652259992436,80.83129510004073,None,0,,,80.85031779995188,DH20,106,2025-04-01_14h39.50.331,416_EXPERIMENT_PSYCHOPY_AU2220019_AU2220225,2024.2.4,59.162530686422976,2025-04-01 14h43.22.958756 +0530,
fear_upper_blur.jpg,f,21,3,3,None,0,,,3,3,21,2,80.85031779995188,,,,,,,,,,,,,,,,80.844989300007,80.85031779995188,82.34633930004202,82.34633930004202,82.36325619998388,82.84620769997127,83.08150600013323,None,0,,,83.1003439000342,DH20,106,2025-04-01_14h39.50.331,416_EXPERIMENT_PSYCHOPY_AU2220019_AU2220225,2024.2.4,59.162530686422976,2025-04-01 14h43.22.958756 +0530,
surprise_lower_blur.jpg,s,22,4,3,f,0,0.7073460000101477,None,3,4,22,5,83.1003439000342,,,,,,,,,,,,,,,,83.09532690001652,83.1003439000342,84.59675880009308,84.59675880009308,84.61325359996408,85.11045369994827,85.31530490005389,f,0,0.7073460000101477,None,,DH20,106,2025-04-01_14h39.50.331,416_EXPERIMENT_PSYCHOPY_AU2220019_AU2220225,2024.2.4,59.162530686422976,2025-04-01 14h43.22.958756 +0530,
fear.jpg,f,23,5,3,f,1,0.3169255000539124,None,3,5,23,0,85.33385020005517,,,,,,,,,,,,,,,,85.32868660008535,85.33385020005517,86.83006520010531,86.83006520010531,86.84681200003251,,87.15062869992107,f,1,0.3169255000539124,None,,DH20,106,2025-04-01_14h39.50.331,416_EXPERIMENT_PSYCHOPY_AU2220019_AU2220225,2024.2.4,59.162530686422976,2025-04-01 14h43.22.958756 +0530,
fear_lower_blur.jpg,f,24,0,4,s,0,0.5606806001160294,None,4,0,24,3,87.16974540008232,,,,,,,,,,,,,,,,87.16362260002643,87.16974540008232,88.66296910005622,88.66296910005622,88.67938250000589,89.16329970001243,89.23128010006621,s,0,0.5606806001160294,None,,DH20,106,2025-04-01_14h39.50.331,416_EXPERIMENT_PSYCHOPY_AU2220019_AU2220225,2024.2.4,59.162530686422976,2025-04-01 14h43.22.958756 +0530,
fear_upper_blur.jpg,f,25,1,4,None,0,,,4,1,25,2,89.24924060003832,,,,,,,,,,,,,,,,89.24360050004907,89.24924060003832,90.74571030004881,90.74571030004881,90.76245000003837,91.24629799998365,91.48087859991938,None,0,,,91.4985998000484,DH20,106,2025-04-01_14h39.50.331,416_EXPERIMENT_PSYCHOPY_AU2220019_AU2220225,2024.2.4,59.162530686422976,2025-04-01 14h43.22.958756 +0530,
surprise_lower_blur.jpg,s,26,2,4,None,0,,,4,2,26,5,91.4985998000484,,,,,,,,,,,,,,,,91.49382770014927,91.4985998000484,92.99640860012732,92.99640860012732,93.01235099998303,93.49560180003755,93.74373090011068,None,0,,,,DH20,106,2025-04-01_14h39.50.331,416_EXPERIMENT_PSYCHOPY_AU2220019_AU2220225,2024.2.4,59.162530686422976,2025-04-01 14h43.22.958756 +0530,
fear.jpg,f,27,3,4,None,0,,,4,3,27,0,93.76319999992847,,,,,,,,,,,,,,,,93.75675290008076,93.76319999992847,95.24631590000354,95.24631590000354,95.26259099994786,95.74602510011755,95.98044980014674,None,0,,,95.9991862999741,DH20,106,2025-04-01_14h39.50.331,416_EXPERIMENT_PSYCHOPY_AU2220019_AU2220225,2024.2.4,59.162530686422976,2025-04-01 14h43.22.958756 +0530,
surprise_upper_blur.jpg,s,28,4,4,s,1,0.3125016000121832,None,4,4,28,4,95.9991862999741,,,,,,,,,,,,,,,,95.99427550006658,95.9991862999741,97.49662510002963,97.49662510002963,97.51246950007044,,97.81539799994789,s,1,0.3125016000121832,None,,DH20,106,2025-04-01_14h39.50.331,416_EXPERIMENT_PSYCHOPY_AU2220019_AU2220225,2024.2.4,59.162530686422976,2025-04-01 14h43.22.958756 +0530,
surprise.jpg,s,29,5,4,f,0,0.32581810001283884,None,4,5,29,1,97.83491370012052,,,,,,,,,,,,,,,,97.82930990005843,97.83491370012052,99.32924750004895,99.32924750004895,99.34559640008956,,99.66462719999254,f,0,0.32581810001283884,None,,DH20,106,2025-04-01_14h39.50.331,416_EXPERIMENT_PSYCHOPY_AU2220019_AU2220225,2024.2.4,59.162530686422976,2025-04-01 14h43.22.958756 +0530,
fear_upper_blur.jpg,f,30,0,5,None,0,,,5,0,30,2,99.68343630013987,,,,,,,,,,,,,,,,99.67778800008819,99.68343630013987,101.17900720005855,101.17900720005855,101.19645230006427,101.69638510001823,101.91448909998871,None,0,,,101.93411549995653,DH20,106,2025-04-01_14h39.50.331,416_EXPERIMENT_PSYCHOPY_AU2220019_AU2220225,2024.2.4,59.162530686422976,2025-04-01 14h43.22.958756 +0530,
fear_lower_blur.jpg,f,31,1,5,None,0,,,5,1,31,3,101.93411549995653,,,,,,,,,,,,,,,,101.92872770014219,101.93411549995653,103.42720820009708,103.42720820009708,103.44377660006285,103.92993750004098,104.16254279995337,None,0,,,104.1782613999676,DH20,106,2025-04-01_14h39.50.331,416_EXPERIMENT_PSYCHOPY_AU2220019_AU2220225,2024.2.4,59.162530686422976,2025-04-01 14h43.22.958756 +0530,
surprise_upper_blur.jpg,s,32,2,5,None,0,,,5,2,32,4,104.1782613999676,,,,,,,,,,,,,,,,104.17255740007386,104.1782613999676,105.67740950011648,105.67740950011648,105.67740950011648,106.17944550001994,106.41265600011684,None,0,,,106.42901700013317,DH20,106,2025-04-01_14h39.50.331,416_EXPERIMENT_PSYCHOPY_AU2220019_AU2220225,2024.2.4,59.162530686422976,2025-04-01 14h43.22.958756 +0530,
surprise_lower_blur.jpg,s,33,3,5,None,0,,,5,3,33,5,106.42901700013317,,,,,,,,,,,,,,,,106.42241539992392,106.42901700013317,107.92856759997085,107.92856759997085,107.92856759997085,108.42901800014079,108.677963900147,None,0,,,,DH20,106,2025-04-01_14h39.50.331,416_EXPERIMENT_PSYCHOPY_AU2220019_AU2220225,2024.2.4,59.162530686422976,2025-04-01 14h43.22.958756 +0530,
fear.jpg,f,34,4,5,None,0,,,5,4,34,0,108.69681970006786,,,,,,,,,,,,,,,,108.69153419998474,108.69681970006786,110.17959040007554,110.17959040007554,110.19690770003945,110.67904220009223,110.9142263000831,None,0,,,110.9329234000761,DH20,106,2025-04-01_14h39.50.331,416_EXPERIMENT_PSYCHOPY_AU2220019_AU2220225,2024.2.4,59.162530686422976,2025-04-01 14h43.22.958756 +0530,
surprise.jpg,s,35,5,5,None,0,,,5,5,35,1,110.9329234000761,,,,,,,,,,,,,,,,110.92805980006233,110.9329234000761,112.42990650003776,112.42990650003776,112.44605099991895,112.94420300005004,113.16440180013888,None,0,,,113.18369470001198,DH20,106,2025-04-01_14h39.50.331,416_EXPERIMENT_PSYCHOPY_AU2220019_AU2220225,2024.2.4,59.162530686422976,2025-04-01 14h43.22.958756 +0530,
fear_upper_blur.jpg,f,36,0,6,None,0,,,6,0,36,2,113.18369470001198,,,,,,,,,,,,,,,,113.17889950005338,113.18369470001198,114.67936870013364,114.67936870013364,114.69591180002317,115.17888169991784,115.41424009995535,None,0,,,115.43266490008682,DH20,106,2025-04-01_14h39.50.331,416_EXPERIMENT_PSYCHOPY_AU2220019_AU2220225,2024.2.4,59.162530686422976,2025-04-01 14h43.22.958756 +0530,
fear_lower_blur.jpg,f,37,1,6,None,0,,,6,1,37,3,115.43266490008682,,,,,,,,,,,,,,,,115.42746479995549,115.43266490008682,116.92928349995054,116.92928349995054,116.94602159992792,117.42925349995494,117.66327479993924,None,0,,,117.67928560008295,DH20,106,2025-04-01_14h39.50.331,416_EXPERIMENT_PSYCHOPY_AU2220019_AU2220225,2024.2.4,59.162530686422976,2025-04-01 14h43.22.958756 +0530,
surprise.jpg,s,38,2,6,None,0,,,6,2,38,1,117.67928560008295,,,,,,,,,,,,,,,,117.67392980004661,117.67928560008295,119.17952860007063,119.17952860007063,119.17952860007063,119.67915900005028,119.91443859995343,None,0,,,119.93185220006853,DH20,106,2025-04-01_14h39.50.331,416_EXPERIMENT_PSYCHOPY_AU2220019_AU2220225,2024.2.4,59.162530686422976,2025-04-01 14h43.22.958756 +0530,
surprise_upper_blur.jpg,s,39,3,6,None,0,,,6,3,39,4,119.93185220006853,,,,,,,,,,,,,,,,119.92731119995005,119.93185220006853,121.42877719993703,121.42877719993703,121.4455612001475,121.94506880012341,122.17799809994176,None,0,,,,DH20,106,2025-04-01_14h39.50.331,416_EXPERIMENT_PSYCHOPY_AU2220019_AU2220225,2024.2.4,59.162530686422976,2025-04-01 14h43.22.958756 +0530,
surprise_lower_blur.jpg,s,40,4,6,s,1,0.6692679999396205,None,6,4,40,5,122.1941740999464,,,,,,,,,,,,,,,,122.1877487001475,122.1941740999464,123.6776044999715,123.6776044999715,123.69426549994387,124.17873040004633,124.3640709000174,s,1,0.6692679999396205,None,,DH20,106,2025-04-01_14h39.50.331,416_EXPERIMENT_PSYCHOPY_AU2220019_AU2220225,2024.2.4,59.162530686422976,2025-04-01 14h43.22.958756 +0530,
fear.jpg,f,41,5,6,None,0,,,6,5,41,0,124.38287269999273,,,,,,,,,,,,,,,,124.37791960011236,124.38287269999273,125.87899639992975,125.87899639992975,125.89456090005115,126.37919709994458,126.61354840011336,None,0,,,126.63235490000807,DH20,106,2025-04-01_14h39.50.331,416_EXPERIMENT_PSYCHOPY_AU2220019_AU2220225,2024.2.4,59.162530686422976,2025-04-01 14h43.22.958756 +0530,
surprise.jpg,s,42,0,7,None,0,,,7,0,42,1,126.63235490000807,,,,,,,,,,,,,,,,126.62734470004216,126.63235490000807,128.1268943999894,128.1268943999894,128.14507000008598,128.62715630000457,128.86380490008742,None,0,,,128.88235420011915,DH20,106,2025-04-01_14h39.50.331,416_EXPERIMENT_PSYCHOPY_AU2220019_AU2220225,2024.2.4,59.162530686422976,2025-04-01 14h43.22.958756 +0530,
fear_lower_blur.jpg,f,43,1,7,None,0,,,7,1,43,3,128.88235420011915,,,,,,,,,,,,,,,,128.87688899994828,128.88235420011915,130.37888789991848,130.37888789991848,130.3961664000526,130.8789343999233,131.11384620005265,None,0,,,131.129234299995,DH20,106,2025-04-01_14h39.50.331,416_EXPERIMENT_PSYCHOPY_AU2220019_AU2220225,2024.2.4,59.162530686422976,2025-04-01 14h43.22.958756 +0530,
fear.jpg,f,44,2,7,None,0,,,7,2,44,0,131.129234299995,,,,,,,,,,,,,,,,131.1242949999869,131.129234299995,132.6277177000884,132.6277177000884,132.6443566000089,133.12786519993097,133.36094549996778,None,0,,,133.37859520013444,DH20,106,2025-04-01_14h39.50.331,416_EXPERIMENT_PSYCHOPY_AU2220019_AU2220225,2024.2.4,59.162530686422976,2025-04-01 14h43.22.958756 +0530,
surprise_upper_blur.jpg,s,45,3,7,None,0,,,7,3,45,4,133.37859520013444,,,,,,,,,,,,,,,,133.37305209995247,133.37859520013444,134.87939539994113,134.87939539994113,134.87939539994113,135.3791756001301,135.61403289996088,None,0,,,135.63198149995878,DH20,106,2025-04-01_14h39.50.331,416_EXPERIMENT_PSYCHOPY_AU2220019_AU2220225,2024.2.4,59.162530686422976,2025-04-01 14h43.22.958756 +0530,
surprise_lower_blur.jpg,s,46,4,7,None,0,,,7,4,46,5,135.63198149995878,,,,,,,,,,,,,,,,135.6279661001172,135.63198149995878,137.12877040007152,137.12877040007152,137.1459162000101,137.6291646999307,137.86427010013722,None,0,,,137.88211770006455,DH20,106,2025-04-01_14h39.50.331,416_EXPERIMENT_PSYCHOPY_AU2220019_AU2220225,2024.2.4,59.162530686422976,2025-04-01 14h43.22.958756 +0530,
fear_upper_blur.jpg,f,47,5,7,None,0,,,7,5,47,2,137.88211770006455,,,,,,,,,,,,,,,,137.8772046000231,137.88211770006455,139.3785337000154,139.3785337000154,139.3945297000464,139.87916000001132,140.11298960004933,None,0,,,140.13034890010022,DH20,106,2025-04-01_14h39.50.331,416_EXPERIMENT_PSYCHOPY_AU2220019_AU2220225,2024.2.4,59.162530686422976,2025-04-01 14h43.22.958756 +0530,
surprise_upper_blur.jpg,s,48,0,8,None,0,,,8,0,48,4,140.13034890010022,,,,,,,,,,,,,,,,140.12309459992684,140.13034890010022,141.62925440003164,141.62925440003164,141.64586449996568,142.14364399993792,142.363431799924,None,0,,,142.38192960014567,DH20,106,2025-04-01_14h39.50.331,416_EXPERIMENT_PSYCHOPY_AU2220019_AU2220225,2024.2.4,59.162530686422976,2025-04-01 14h43.22.958756 +0530,
fear.jpg,f,49,1,8,f,1,0.7084578000940382,None,8,1,49,0,142.38192960014567,,,,,,,,,,,,,,,,142.37765859998763,142.38192960014567,143.87954850005917,143.87954850005917,143.89567980007268,144.37899490003474,144.59792830003425,f,1,0.7084578000940382,None,,DH20,106,2025-04-01_14h39.50.331,416_EXPERIMENT_PSYCHOPY_AU2220019_AU2220225,2024.2.4,59.162530686422976,2025-04-01 14h43.22.958756 +0530,
fear_upper_blur.jpg,f,50,2,8,None,0,,,8,2,50,2,144.61420930013992,,,,,,,,,,,,,,,,144.60930270003155,144.61420930013992,146.112354000099,146.112354000099,146.12918379995972,146.62720809993334,146.8607121000532,None,0,,,,DH20,106,2025-04-01_14h39.50.331,416_EXPERIMENT_PSYCHOPY_AU2220019_AU2220225,2024.2.4,59.162530686422976,2025-04-01 14h43.22.958756 +0530,
fear_lower_blur.jpg,f,51,3,8,None,0,,,8,3,51,3,146.87866090005264,,,,,,,,,,,,,,,,146.87278490001336,146.87866090005264,148.36245790007524,148.36245790007524,148.37952370010316,148.87928800005466,149.09733920008875,None,0,,,149.1147030000575,DH20,106,2025-04-01_14h39.50.331,416_EXPERIMENT_PSYCHOPY_AU2220019_AU2220225,2024.2.4,59.162530686422976,2025-04-01 14h43.22.958756 +0530,
surprise_lower_blur.jpg,s,52,4,8,None,0,,,8,4,52,5,149.1147030000575,,,,,,,,,,,,,,,,149.11008300003596,149.1147030000575,150.61232980014756,150.61232980014756,150.62782460008748,151.1126095999498,151.34767109993845,None,0,,,151.3676233999431,DH20,106,2025-04-01_14h39.50.331,416_EXPERIMENT_PSYCHOPY_AU2220019_AU2220225,2024.2.4,59.162530686422976,2025-04-01 14h43.22.958756 +0530,
surprise.jpg,s,53,5,8,None,0,,,8,5,53,1,151.3676233999431,,,,,,,,,,,,,,,,151.36192870000377,151.3676233999431,152.8622047000099,152.8622047000099,152.8793250999879,153.36565049993806,153.60054469993338,None,0,,,,DH20,106,2025-04-01_14h39.50.331,416_EXPERIMENT_PSYCHOPY_AU2220019_AU2220225,2024.2.4,59.162530686422976,2025-04-01 14h43.22.958756 +0530,
surprise_upper_blur.jpg,s,54,0,9,s,1,0.5166581000667065,None,9,0,54,4,153.62069170014001,,,,,,,,,,,,,,,,153.61496390006505,153.62069170014001,155.1123136000242,155.1123136000242,155.12893410003744,155.62710879999213,155.6477487999946,s,1,0.5166581000667065,None,,DH20,106,2025-04-01_14h39.50.331,416_EXPERIMENT_PSYCHOPY_AU2220019_AU2220225,2024.2.4,59.162530686422976,2025-04-01 14h43.22.958756 +0530,
fear_lower_blur.jpg,f,55,1,9,f,1,0.5602651999797672,None,9,1,55,3,155.6628606999293,,,,,,,,,,,,,,,,155.65767699992284,155.6628606999293,157.1623350000009,157.1623350000009,157.1623350000009,157.6772477000486,157.73140940000303,f,1,0.5602651999797672,None,,DH20,106,2025-04-01_14h39.50.331,416_EXPERIMENT_PSYCHOPY_AU2220019_AU2220225,2024.2.4,59.162530686422976,2025-04-01 14h43.22.958756 +0530,
surprise_lower_blur.jpg,s,56,2,9,s,1,0.7103105999995023,None,9,2,56,5,157.74905660003424,,,,,,,,,,,,,,,,157.74404150014743,157.74905660003424,159.24569780007005,159.24569780007005,159.26236209995113,159.7454490000382,159.9650536000263,s,1,0.7103105999995023,None,,DH20,106,2025-04-01_14h39.50.331,416_EXPERIMENT_PSYCHOPY_AU2220019_AU2220225,2024.2.4,59.162530686422976,2025-04-01 14h43.22.958756 +0530,
fear.jpg,f,57,3,9,None,0,,,9,3,57,0,159.98449450009502,,,,,,,,,,,,,,,,159.9790978000965,159.98449450009502,161.4796482999809,161.4796482999809,161.495860400144,161.9793225999456,162.21356129995547,None,0,,,162.23359790001996,DH20,106,2025-04-01_14h39.50.331,416_EXPERIMENT_PSYCHOPY_AU2220019_AU2220225,2024.2.4,59.162530686422976,2025-04-01 14h43.22.958756 +0530,
surprise.jpg,s,58,4,9,None,0,,,9,4,58,1,162.23359790001996,,,,,,,,,,,,,,,,162.2280908001121,162.23359790001996,163.72878140001558,163.72878140001558,163.7446498000063,164.22879590000957,164.46432020002976,None,0,,,164.48320650006644,DH20,106,2025-04-01_14h39.50.331,416_EXPERIMENT_PSYCHOPY_AU2220019_AU2220225,2024.2.4,59.162530686422976,2025-04-01 14h43.22.958756 +0530,
fear_upper_blur.jpg,f,59,5,9,None,0,,,9,5,59,2,164.48320650006644,,,,,,,,,,,,,,,,164.47784700011835,164.48320650006644,165.97947590006515,165.97947590006515,165.99547419999726,166.47902980004437,166.71428459999152,None,0,,,166.7335370001383,DH20,106,2025-04-01_14h39.50.331,416_EXPERIMENT_PSYCHOPY_AU2220019_AU2220225,2024.2.4,59.162530686422976,2025-04-01 14h43.22.958756 +0530,
surprise.jpg,s,60,0,10,None,0,,,10,0,60,1,166.7335370001383,,,,,,,,,,,,,,,,166.72848940012045,166.7335370001383,168.22923290007748,168.22923290007748,168.2452281001024,168.72900870000012,168.96392509993166,None,0,,,168.98198599996977,DH20,106,2025-04-01_14h39.50.331,416_EXPERIMENT_PSYCHOPY_AU2220019_AU2220225,2024.2.4,59.162530686422976,2025-04-01 14h43.22.958756 +0530,
fear_lower_blur.jpg,f,61,1,10,f,1,0.5563836998771876,None,10,1,61,3,168.98198599996977,,,,,,,,,,,,,,,,168.97711089998484,168.98198599996977,170.47898020013236,170.47898020013236,170.49555910006166,170.97947559994645,171.04770340002142,f,1,0.5563836998771876,None,,DH20,106,2025-04-01_14h39.50.331,416_EXPERIMENT_PSYCHOPY_AU2220019_AU2220225,2024.2.4,59.162530686422976,2025-04-01 14h43.22.958756 +0530,
surprise_upper_blur.jpg,s,62,2,10,None,0,,,10,2,62,4,171.06559549993835,,,,,,,,,,,,,,,,171.0606957001146,171.06559549993835,172.56064880010672,172.56064880010672,172.57720299996436,173.0612455001101,173.29498190013692,None,0,,,173.3124863000121,DH20,106,2025-04-01_14h39.50.331,416_EXPERIMENT_PSYCHOPY_AU2220019_AU2220225,2024.2.4,59.162530686422976,2025-04-01 14h43.22.958756 +0530,
surprise_lower_blur.jpg,s,63,3,10,None,0,,,10,3,63,5,173.3124863000121,,,,,,,,,,,,,,,,173.30712120002136,173.3124863000121,174.8108198000118,174.8108198000118,174.82761569996364,175.31066079996526,175.5473299000878,None,0,,,175.566264500143,DH20,106,2025-04-01_14h39.50.331,416_EXPERIMENT_PSYCHOPY_AU2220019_AU2220225,2024.2.4,59.162530686422976,2025-04-01 14h43.22.958756 +0530,
fear_upper_blur.jpg,f,64,4,10,None,0,,,10,4,64,2,175.566264500143,,,,,,,,,,,,,,,,175.5608024999965,175.566264500143,177.0610752000939,177.0610752000939,177.07784959999844,177.56037570000626,177.79634530004114,None,0,,,177.81437069992535,DH20,106,2025-04-01_14h39.50.331,416_EXPERIMENT_PSYCHOPY_AU2220019_AU2220225,2024.2.4,59.162530686422976,2025-04-01 14h43.22.958756 +0530,
fear.jpg,f,65,5,10,None,0,,,10,5,65,0,177.81437069992535,,,,,,,,,,,,,,,,177.80938050011173,177.81437069992535,179.31088380003348,179.31088380003348,179.31088380003348,179.81172630004585,180.04749469994567,None,0,,,180.0643507000059,DH20,106,2025-04-01_14h39.50.331,416_EXPERIMENT_PSYCHOPY_AU2220019_AU2220225,2024.2.4,59.162530686422976,2025-04-01 14h43.22.958756 +0530,
fear.jpg,f,66,0,11,f,1,0.7004261000547558,None,11,0,66,0,180.0643507000059,,,,,,,,,,,,,,,,180.0588525000494,180.0643507000059,181.5629267001059,181.5629267001059,181.57895110012032,182.0619751000777,182.27846270008013,f,1,0.7004261000547558,None,,DH20,106,2025-04-01_14h39.50.331,416_EXPERIMENT_PSYCHOPY_AU2220019_AU2220225,2024.2.4,59.162530686422976,2025-04-01 14h43.22.958756 +0530,
surprise_upper_blur.jpg,s,67,1,11,s,1,0.5679401999805123,None,11,1,67,4,182.29466839996167,,,,,,,,,,,,,,,,182.28769779996946,182.29466839996167,183.78061549994163,183.78061549994163,183.79668810009025,184.29430339997634,184.36366900010034,s,1,0.5679401999805123,None,,DH20,106,2025-04-01_14h39.50.331,416_EXPERIMENT_PSYCHOPY_AU2220019_AU2220225,2024.2.4,59.162530686422976,2025-04-01 14h43.22.958756 +0530,
fear_lower_blur.jpg,f,68,2,11,f,1,0.5641189999878407,None,11,2,68,3,184.3794549999293,,,,,,,,,,,,,,,,184.37250140006654,184.3794549999293,185.86331870011054,185.86331870011054,185.87966129998676,186.36319210007787,186.43096189992502,f,1,0.5641189999878407,None,,DH20,106,2025-04-01_14h39.50.331,416_EXPERIMENT_PSYCHOPY_AU2220019_AU2220225,2024.2.4,59.162530686422976,2025-04-01 14h43.22.958756 +0530,
fear_upper_blur.jpg,f,69,3,11,None,0,,,11,3,69,2,186.449955600081,,,,,,,,,,,,,,,,186.44444749993272,186.449955600081,187.94705690001138,187.94705690001138,187.96455050003715,188.46051619993523,188.68159079994075,None,0,,,188.70064090006053,DH20,106,2025-04-01_14h39.50.331,416_EXPERIMENT_PSYCHOPY_AU2220019_AU2220225,2024.2.4,59.162530686422976,2025-04-01 14h43.22.958756 +0530,
surprise.jpg,s,70,4,11,None,0,,,11,4,70,1,188.70064090006053,,,,,,,,,,,,,,,,188.69536469993182,188.70064090006053,190.1942058999557,190.1942058999557,190.2128326999955,190.69408120005392,190.93137779994868,None,0,,,190.94912740006112,DH20,106,2025-04-01_14h39.50.331,416_EXPERIMENT_PSYCHOPY_AU2220019_AU2220225,2024.2.4,59.162530686422976,2025-04-01 14h43.22.958756 +0530,
surprise_lower_blur.jpg,s,71,5,11,None,0,,,11,5,71,5,190.94912740006112,,,,,,,,,,,,,,,,190.94429070013575,190.94912740006112,192.4440750000067,192.4440750000067,192.46057360013947,192.94586939993314,193.1814280000981,None,0,,,193.20390580012463,DH20,106,2025-04-01_14h39.50.331,416_EXPERIMENT_PSYCHOPY_AU2220019_AU2220225,2024.2.4,59.162530686422976,2025-04-01 14h43.22.958756 +0530,
surprise.jpg,s,72,0,12,f,0,0.6123091999907047,None,12,0,72,1,193.20390580012463,,,,,,,,,,,,,,,,193.19651119993068,193.20390580012463,194.69426509994082,194.69426509994082,194.71124530001543,195.19638730003498,195.31286670011468,f,0,0.6123091999907047,None,,DH20,106,2025-04-01_14h39.50.331,416_EXPERIMENT_PSYCHOPY_AU2220019_AU2220225,2024.2.4,59.162530686422976,2025-04-01 14h43.22.958756 +0530,
fear_upper_blur.jpg,f,73,1,12,None,0,,,12,1,73,2,195.33065939997323,,,,,,,,,,,,,,,,195.32544660009444,195.33065939997323,196.82787650008686,196.82787650008686,196.84447260014713,197.32748760003597,197.56292830011807,None,0,,,197.57914549997076,DH20,106,2025-04-01_14h39.50.331,416_EXPERIMENT_PSYCHOPY_AU2220019_AU2220225,2024.2.4,59.162530686422976,2025-04-01 14h43.22.958756 +0530,
surprise_lower_blur.jpg,s,74,2,12,None,0,,,12,2,74,5,197.57914549997076,,,,,,,,,,,,,,,,197.57376069994643,197.57914549997076,199.07972369994968,199.07972369994968,199.09682460012846,199.59497580002062,199.8275326001458,None,0,,,,DH20,106,2025-04-01_14h39.50.331,416_EXPERIMENT_PSYCHOPY_AU2220019_AU2220225,2024.2.4,59.162530686422976,2025-04-01 14h43.22.958756 +0530,
surprise_upper_blur.jpg,s,75,3,12,None,0,,,12,3,75,4,199.8466586000286,,,,,,,,,,,,,,,,199.8398792000953,199.8466586000286,201.32709529995918,201.32709529995918,201.35991430003196,201.8297568000853,202.06113349995576,None,0,,,202.07767220004462,DH20,106,2025-04-01_14h39.50.331,416_EXPERIMENT_PSYCHOPY_AU2220019_AU2220225,2024.2.4,59.162530686422976,2025-04-01 14h43.22.958756 +0530,
fear_lower_blur.jpg,f,76,4,12,None,0,,,12,4,76,3,202.07767220004462,,,,,,,,,,,,,,,,202.07088649994694,202.07767220004462,203.56298859999515,203.56298859999515,203.58023139997385,204.08023989992216,204.3112121000886,None,0,,,204.32946539996192,DH20,106,2025-04-01_14h39.50.331,416_EXPERIMENT_PSYCHOPY_AU2220019_AU2220225,2024.2.4,59.162530686422976,2025-04-01 14h43.22.958756 +0530,
fear.jpg,f,77,5,12,None,0,,,12,5,77,0,204.32946539996192,,,,,,,,,,,,,,,,204.32451780000702,204.32946539996192,205.81312549998984,205.81312549998984,205.8298585000448,206.3283204000909,206.56209270004183,None,0,,,206.58102310006507,DH20,106,2025-04-01_14h39.50.331,416_EXPERIMENT_PSYCHOPY_AU2220019_AU2220225,2024.2.4,59.162530686422976,2025-04-01 14h43.22.958756 +0530,
surprise.jpg,s,78,0,13,None,0,,,13,0,78,1,206.58102310006507,,,,,,,,,,,,,,,,206.57551970006898,206.58102310006507,208.06306580011733,208.06306580011733,208.096564500127,208.57831469993107,208.797289500013,None,0,,,208.81630669999868,DH20,106,2025-04-01_14h39.50.331,416_EXPERIMENT_PSYCHOPY_AU2220019_AU2220225,2024.2.4,59.162530686422976,2025-04-01 14h43.22.958756 +0530,
fear.jpg,f,79,1,13,None,0,,,13,1,79,0,208.81630669999868,,,,,,,,,,,,,,,,208.81102439993992,208.81630669999868,210.32777360011823,210.32777360011823,210.32777360011823,210.8268633999396,211.06367120007053,None,0,,,211.08180469996296,DH20,106,2025-04-01_14h39.50.331,416_EXPERIMENT_PSYCHOPY_AU2220019_AU2220225,2024.2.4,59.162530686422976,2025-04-01 14h43.22.958756 +0530,
surprise_lower_blur.jpg,s,80,2,13,None,0,,,13,2,80,5,211.08180469996296,,,,,,,,,,,,,,,,211.0772186999675,211.08180469996296,212.56224959995598,212.56224959995598,212.59634899999946,213.0613897999283,213.3138185001444,None,0,,,213.33378900005482,DH20,106,2025-04-01_14h39.50.331,416_EXPERIMENT_PSYCHOPY_AU2220019_AU2220225,2024.2.4,59.162530686422976,2025-04-01 14h43.22.958756 +0530,
fear_upper_blur.jpg,f,81,3,13,None,0,,,13,3,81,2,213.33378900005482,,,,,,,,,,,,,,,,213.32808140013367,213.33378900005482,214.82881750003435,214.82881750003435,214.84614640008658,215.3288179000374,215.56412490014918,None,0,,,215.58246519998647,DH20,106,2025-04-01_14h39.50.331,416_EXPERIMENT_PSYCHOPY_AU2220019_AU2220225,2024.2.4,59.162530686422976,2025-04-01 14h43.22.958756 +0530,
fear_lower_blur.jpg,f,82,4,13,f,1,0.7205382999964058,None,13,4,82,3,215.58246519998647,,,,,,,,,,,,,,,,215.57773809996434,215.58246519998647,217.06266129994765,217.06266129994765,217.09481090004556,217.56215619994327,217.79507500003092,f,1,0.7205382999964058,None,,DH20,106,2025-04-01_14h39.50.331,416_EXPERIMENT_PSYCHOPY_AU2220019_AU2220225,2024.2.4,59.162530686422976,2025-04-01 14h43.22.958756 +0530,
surprise_upper_blur.jpg,s,83,5,13,None,0,,,13,5,83,4,217.81373369996436,,,,,,,,,,,,,,,,217.80748730013147,217.81373369996436,219.29372860002331,219.29372860002331,219.32796159991995,219.79553370014764,220.02820020006038,None,0,,,220.0451690000482,DH20,106,2025-04-01_14h39.50.331,416_EXPERIMENT_PSYCHOPY_AU2220019_AU2220225,2024.2.4,59.162530686422976,2025-04-01 14h43.22.958756 +0530,
fear_lower_blur.jpg,f,84,0,14,None,0,,,14,0,84,3,220.0451690000482,,,,,,,,,,,,,,,,220.04062530002557,220.06075990013778,221.54594120010734,221.54594120010734,221.5622879001312,222.04485860001296,222.29481779993512,None,0,,,222.31228980002925,DH20,106,2025-04-01_14h39.50.331,416_EXPERIMENT_PSYCHOPY_AU2220019_AU2220225,2024.2.4,59.162530686422976,2025-04-01 14h43.22.958756 +0530,
fear.jpg,f,85,1,14,None,0,,,14,1,85,0,222.31228980002925,,,,,,,,,,,,,,,,222.30525520001538,222.31228980002925,223.8125096000731,223.8125096000731,223.8125096000731,224.32938070013188,224.56060359999537,None,0,,,,DH20,106,2025-04-01_14h39.50.331,416_EXPERIMENT_PSYCHOPY_AU2220019_AU2220225,2024.2.4,59.162530686422976,2025-04-01 14h43.22.958756 +0530,
surprise_lower_blur.jpg,s,86,2,14,None,0,,,14,2,86,5,224.58025310002267,,,,,,,,,,,,,,,,224.57260389998555,224.58025310002267,226.06055109994486,226.06055109994486,226.09383579995483,226.5622879001312,226.7965573000256,None,0,,,,DH20,106,2025-04-01_14h39.50.331,416_EXPERIMENT_PSYCHOPY_AU2220019_AU2220225,2024.2.4,59.162530686422976,2025-04-01 14h43.22.958756 +0530,
surprise_upper_blur.jpg,s,87,3,14,None,0,,,14,3,87,4,226.81554149999283,,,,,,,,,,,,,,,,226.8096394999884,226.81554149999283,228.31248020008206,228.31248020008206,228.3289677000139,228.81304759997874,229.0613162999507,None,0,,,,DH20,106,2025-04-01_14h39.50.331,416_EXPERIMENT_PSYCHOPY_AU2220019_AU2220225,2024.2.4,59.162530686422976,2025-04-01 14h43.22.958756 +0530,
fear_upper_blur.jpg,f,88,4,14,None,0,,,14,4,88,2,229.078973100055,,,,,,,,,,,,,,,,229.07366889994591,229.078973100055,230.5461862999946,230.5461862999946,230.57924910006113,231.04568380001,231.29553200001828,None,0,,,231.3120739001315,DH20,106,2025-04-01_14h39.50.331,416_EXPERIMENT_PSYCHOPY_AU2220019_AU2220225,2024.2.4,59.162530686422976,2025-04-01 14h43.22.958756 +0530,
surprise.jpg,s,89,5,14,s,1,0.4911930998787284,None,14,5,89,1,231.3120739001315,,,,,,,,,,,,,,,,231.30676489998586,231.3120739001315,232.8102047999855,232.8102047999855,232.82695639994927,233.31269209994934,233.3149566000793,s,1,0.4911930998787284,None,,DH20,106,2025-04-01_14h39.50.331,416_EXPERIMENT_PSYCHOPY_AU2220019_AU2220225,2024.2.4,59.162530686422976,2025-04-01 14h43.22.958756 +0530,
fear_upper_blur.jpg,f,90,0,15,None,0,,,15,0,90,2,233.33389879995957,,,,,,,,,,,,,,,,233.32760670012794,233.33389879995957,234.82768280012533,234.82768280012533,234.84399560000747,235.32900790008716,235.56440420006402,None,0,,,235.58247609995306,DH20,106,2025-04-01_14h39.50.331,416_EXPERIMENT_PSYCHOPY_AU2220019_AU2220225,2024.2.4,59.162530686422976,2025-04-01 14h43.22.958756 +0530,
fear_lower_blur.jpg,f,91,1,15,None,0,,,15,1,91,3,235.58247609995306,,,,,,,,,,,,,,,,235.57762519991957,235.58247609995306,237.07950849994086,237.07950849994086,237.0957180999685,237.57921779993922,237.82743349997327,None,0,,,,DH20,106,2025-04-01_14h39.50.331,416_EXPERIMENT_PSYCHOPY_AU2220019_AU2220225,2024.2.4,59.162530686422976,2025-04-01 14h43.22.958756 +0530,
surprise_upper_blur.jpg,s,92,2,15,None,0,,,15,2,92,4,237.84776389994659,,,,,,,,,,,,,,,,237.84081630012952,237.84776389994659,239.32918340014294,239.32918340014294,239.36226180009544,239.8290669999551,240.06433239998296,None,0,,,240.0834900001064,DH20,106,2025-04-01_14h39.50.331,416_EXPERIMENT_PSYCHOPY_AU2220019_AU2220225,2024.2.4,59.162530686422976,2025-04-01 14h43.22.958756 +0530,
surprise.jpg,s,93,3,15,None,0,,,15,3,93,1,240.0834900001064,,,,,,,,,,,,,,,,240.07839679997414,240.0834900001064,241.57949970010668,241.57949970010668,241.5963034001179,242.07918899995275,242.32704670005478,None,0,,,,DH20,106,2025-04-01_14h39.50.331,416_EXPERIMENT_PSYCHOPY_AU2220019_AU2220225,2024.2.4,59.162530686422976,2025-04-01 14h43.22.958756 +0530,
fear.jpg,f,94,4,15,None,0,,,15,4,94,0,242.34517190000042,,,,,,,,,,,,,,,,242.3399042999372,242.34517190000042,243.82891999999993,243.82891999999993,243.8454835000448,244.34607410011813,244.56317929993384,None,0,,,244.57849929993972,DH20,106,2025-04-01_14h39.50.331,416_EXPERIMENT_PSYCHOPY_AU2220019_AU2220225,2024.2.4,59.162530686422976,2025-04-01 14h43.22.958756 +0530,
surprise_lower_blur.jpg,s,95,5,15,None,0,,,15,5,95,5,244.57849929993972,,,,,,,,,,,,,,,,244.57255630008876,244.57849929993972,246.07921930006705,246.07921930006705,246.07921930006705,246.5791607000865,246.81351409992203,None,0,,,246.8316780999303,DH20,106,2025-04-01_14h39.50.331,416_EXPERIMENT_PSYCHOPY_AU2220019_AU2220225,2024.2.4,59.162530686422976,2025-04-01 14h43.22.958756 +0530,
surprise.jpg,s,96,0,16,None,0,,,16,0,96,1,246.8316780999303,,,,,,,,,,,,,,,,246.82727520004846,246.8316780999303,248.32716730004176,248.32716730004176,248.343672899995,248.8278058001306,249.06250980007462,None,0,,,249.08139370009303,DH20,106,2025-04-01_14h39.50.331,416_EXPERIMENT_PSYCHOPY_AU2220019_AU2220225,2024.2.4,59.162530686422976,2025-04-01 14h43.22.958756 +0530,
fear.jpg,f,97,1,16,None,0,,,16,1,97,0,249.08139370009303,,,,,,,,,,,,,,,,249.07625339995138,249.08139370009303,250.57935040001757,250.57935040001757,250.59708670014516,251.07864570012316,251.3143273999449,None,0,,,251.33216869994067,DH20,106,2025-04-01_14h39.50.331,416_EXPERIMENT_PSYCHOPY_AU2220019_AU2220225,2024.2.4,59.162530686422976,2025-04-01 14h43.22.958756 +0530,
surprise_upper_blur.jpg,s,98,2,16,None,0,,,16,2,98,4,251.33216869994067,,,,,,,,,,,,,,,,251.3271959000267,251.33216869994067,252.82916390011087,252.82916390011087,252.84407460014336,253.32894479995593,253.57740429998375,None,0,,,,DH20,106,2025-04-01_14h39.50.331,416_EXPERIMENT_PSYCHOPY_AU2220019_AU2220225,2024.2.4,59.162530686422976,2025-04-01 14h43.22.958756 +0530,
surprise_lower_blur.jpg,s,99,3,16,None,0,,,16,3,99,5,253.59550060005859,,,,,,,,,,,,,,,,253.58998250006698,253.59550060005859,255.07964570005424,255.07964570005424,255.095860700123,255.57901590014808,255.8143696000334,None,0,,,255.83287009992637,DH20,106,2025-04-01_14h39.50.331,416_EXPERIMENT_PSYCHOPY_AU2220019_AU2220225,2024.2.4,59.162530686422976,2025-04-01 14h43.22.958756 +0530,
fear_lower_blur.jpg,f,100,4,16,None,0,,,16,4,100,3,255.83287009992637,,,,,,,,,,,,,,,,255.82778699998744,255.83287009992637,257.32933340012096,257.32933340012096,257.3457204999868,257.82907130010426,258.0777295001317,None,0,,,,DH20,106,2025-04-01_14h39.50.331,416_EXPERIMENT_PSYCHOPY_AU2220019_AU2220225,2024.2.4,59.162530686422976,2025-04-01 14h43.22.958756 +0530,
fear_upper_blur.jpg,f,101,5,16,None,0,,,16,5,101,2,258.09582359995693,,,,,,,,,,,,,,,,258.0901041999459,258.09582359995693,259.57911060005426,259.57911060005426,259.5954686999321,260.09371210006066,260.31395080010407,None,0,,,260.3336159000173,DH20,106,2025-04-01_14h39.50.331,416_EXPERIMENT_PSYCHOPY_AU2220019_AU2220225,2024.2.4,59.162530686422976,2025-04-01 14h43.22.958756 +0530,
surprise.jpg,s,102,0,17,None,0,,,17,0,102,1,260.3336159000173,,,,,,,,,,,,,,,,260.32829720014706,260.3336159000173,261.82922239997424,261.82922239997424,261.84582279995084,262.3290468000341,262.5639945999719,None,0,,,262.58232269994915,DH20,106,2025-04-01_14h39.50.331,416_EXPERIMENT_PSYCHOPY_AU2220019_AU2220225,2024.2.4,59.162530686422976,2025-04-01 14h43.22.958756 +0530,
surprise_lower_blur.jpg,s,103,1,17,None,0,,,17,1,103,5,262.58232269994915,,,,,,,,,,,,,,,,262.5772384000011,262.58232269994915,264.07819480006583,264.07819480006583,264.09382540010847,264.57949459995143,264.81284560007043,None,0,,,264.82949659996666,DH20,106,2025-04-01_14h39.50.331,416_EXPERIMENT_PSYCHOPY_AU2220019_AU2220225,2024.2.4,59.162530686422976,2025-04-01 14h43.22.958756 +0530,
surprise_upper_blur.jpg,s,104,2,17,None,0,,,17,2,104,4,264.82949659996666,,,,,,,,,,,,,,,,264.8248191999737,264.82949659996666,266.32840140000917,266.32840140000917,266.32840140000917,266.8271761001088,267.0641101000365,None,0,,,267.08356199995615,DH20,106,2025-04-01_14h39.50.331,416_EXPERIMENT_PSYCHOPY_AU2220019_AU2220225,2024.2.4,59.162530686422976,2025-04-01 14h43.22.958756 +0530,
fear.jpg,f,105,3,17,None,0,,,17,3,105,0,267.08356199995615,,,,,,,,,,,,,,,,267.0787820001133,267.08356199995615,268.57820510002784,268.57820510002784,268.59426350006834,269.07889640005305,269.31422980013303,None,0,,,269.3324466000777,DH20,106,2025-04-01_14h39.50.331,416_EXPERIMENT_PSYCHOPY_AU2220019_AU2220225,2024.2.4,59.162530686422976,2025-04-01 14h43.22.958756 +0530,
fear_upper_blur.jpg,f,106,4,17,None,0,,,17,4,106,2,269.3324466000777,,,,,,,,,,,,,,,,269.32778130006045,269.3324466000777,270.82885419996455,270.82885419996455,270.8456969000399,271.3288994000759,271.56410840013996,None,0,,,271.58165930001996,DH20,106,2025-04-01_14h39.50.331,416_EXPERIMENT_PSYCHOPY_AU2220019_AU2220225,2024.2.4,59.162530686422976,2025-04-01 14h43.22.958756 +0530,
fear_lower_blur.jpg,f,107,5,17,f,1,0.6570544000715017,None,17,5,107,3,271.58165930001996,,,,,,,,,,,,,,,,271.57694709999487,271.58165930001996,273.07912050001323,273.07912050001323,273.0958742001094,273.57922079996206,273.74796269997023,f,1,0.6570544000715017,None,,DH20,106,2025-04-01_14h39.50.331,416_EXPERIMENT_PSYCHOPY_AU2220019_AU2220225,2024.2.4,59.162530686422976,2025-04-01 14h43.22.958756 +0530,
fear.jpg,f,108,0,18,f,1,0.6464935999829322,None,18,0,108,0,273.76736119994894,,,,,,,,,,,,,,,,273.7618833000306,273.76736119994894,275.26210130006075,275.26210130006075,275.2789245999884,275.76276500010863,275.9152975000907,f,1,0.6464935999829322,None,,DH20,106,2025-04-01_14h39.50.331,416_EXPERIMENT_PSYCHOPY_AU2220019_AU2220225,2024.2.4,59.162530686422976,2025-04-01 14h43.22.958756 +0530,
surprise_lower_blur.jpg,s,109,1,18,None,0,,,18,1,109,5,275.9334526001476,,,,,,,,,,,,,,,,275.9279287001118,275.9334526001476,277.42931920010597,277.42931920010597,277.4457386001013,277.94638269999996,278.16376490006223,None,0,,,278.18151740008034,DH20,106,2025-04-01_14h39.50.331,416_EXPERIMENT_PSYCHOPY_AU2220019_AU2220225,2024.2.4,59.162530686422976,2025-04-01 14h43.22.958756 +0530,
fear_lower_blur.jpg,f,110,2,18,None,0,,,18,2,110,3,278.18151740008034,,,,,,,,,,,,,,,,278.1770105001051,278.18151740008034,279.67932750005275,279.67932750005275,279.6959412000142,280.1937848001253,280.4279815000482,None,0,,,,DH20,106,2025-04-01_14h39.50.331,416_EXPERIMENT_PSYCHOPY_AU2220019_AU2220225,2024.2.4,59.162530686422976,2025-04-01 14h43.22.958756 +0530,
surprise.jpg,s,111,3,18,None,0,,,18,3,111,1,280.44932040013373,,,,,,,,,,,,,,,,280.4446483999491,280.44932040013373,281.92921550013125,281.92921550013125,281.9624421999324,282.42907060007565,282.6635195999406,None,0,,,282.68200320005417,DH20,106,2025-04-01_14h39.50.331,416_EXPERIMENT_PSYCHOPY_AU2220019_AU2220225,2024.2.4,59.162530686422976,2025-04-01 14h43.22.958756 +0530,
fear_upper_blur.jpg,f,112,4,18,None,0,,,18,4,112,2,282.68200320005417,,,,,,,,,,,,,,,,282.6772630000487,282.68200320005417,284.17716479999945,284.17716479999945,284.19494009995833,284.6779716000892,284.91340339998715,None,0,,,284.9279320000205,DH20,106,2025-04-01_14h39.50.331,416_EXPERIMENT_PSYCHOPY_AU2220019_AU2220225,2024.2.4,59.162530686422976,2025-04-01 14h43.22.958756 +0530,
surprise_upper_blur.jpg,s,113,5,18,None,0,,,18,5,113,4,284.9279320000205,,,,,,,,,,,,,,,,284.92298200004734,284.9279320000205,286.428673800081,286.428673800081,286.428673800081,286.9291553001385,287.16374700004235,None,0,,,287.1825206000358,DH20,106,2025-04-01_14h39.50.331,416_EXPERIMENT_PSYCHOPY_AU2220019_AU2220225,2024.2.4,59.162530686422976,2025-04-01 14h43.22.958756 +0530,
surprise.jpg,s,114,0,19,None,0,,,19,0,114,1,287.1825206000358,,,,,,,,,,,,,,,,287.1775026000105,287.1825206000358,288.6793057001196,288.6793057001196,288.69594409991987,289.1793931000866,289.4143010000698,None,0,,,289.4334702999331,DH20,106,2025-04-01_14h39.50.331,416_EXPERIMENT_PSYCHOPY_AU2220019_AU2220225,2024.2.4,59.162530686422976,2025-04-01 14h43.22.958756 +0530,
surprise_upper_blur.jpg,s,115,1,19,None,0,,,19,1,115,4,289.4334702999331,,,,,,,,,,,,,,,,289.4288951000199,289.4334702999331,290.9271146999672,290.9271146999672,290.9436181001365,291.42859010002576,291.6636155000888,None,0,,,291.6797686999198,DH20,106,2025-04-01_14h39.50.331,416_EXPERIMENT_PSYCHOPY_AU2220019_AU2220225,2024.2.4,59.162530686422976,2025-04-01 14h43.22.958756 +0530,
fear_lower_blur.jpg,f,116,2,19,None,0,,,19,2,116,3,291.6797686999198,,,,,,,,,,,,,,,,291.6742052999325,291.6797686999198,293.1792375999503,293.1792375999503,293.1792375999503,293.6774452999234,293.92903380002826,None,0,,,,DH20,106,2025-04-01_14h39.50.331,416_EXPERIMENT_PSYCHOPY_AU2220019_AU2220225,2024.2.4,59.162530686422976,2025-04-01 14h43.22.958756 +0530,
fear_upper_blur.jpg,f,117,3,19,None,0,,,19,3,117,2,293.94656000006944,,,,,,,,,,,,,,,,293.9391830000095,293.94656000006944,295.42920719995163,295.42920719995163,295.4459079001099,295.929355799919,296.1641446000431,None,0,,,296.1829173001461,DH20,106,2025-04-01_14h39.50.331,416_EXPERIMENT_PSYCHOPY_AU2220019_AU2220225,2024.2.4,59.162530686422976,2025-04-01 14h43.22.958756 +0530,
fear.jpg,f,118,4,19,None,0,,,19,4,118,0,296.1829173001461,,,,,,,,,,,,,,,,296.17817230010405,296.1829173001461,297.6792957999278,297.6792957999278,297.69598820013925,298.1792560000904,298.41362800006755,None,0,,,298.43139320006594,DH20,106,2025-04-01_14h39.50.331,416_EXPERIMENT_PSYCHOPY_AU2220019_AU2220225,2024.2.4,59.162530686422976,2025-04-01 14h43.22.958756 +0530,
surprise_lower_blur.jpg,s,119,5,19,s,1,0.7139677000232041,None,19,5,119,5,298.43139320006594,,,,,,,,,,,,,,,,298.42648950009607,298.43139320006594,299.92993270000443,299.92993270000443,299.9460702999495,300.4295833001379,300.64805710013025,s,1,0.7139677000232041,None,,DH20,106,2025-04-01_14h39.50.331,416_EXPERIMENT_PSYCHOPY_AU2220019_AU2220225,2024.2.4,59.162530686422976,2025-04-01 14h43.22.958756 +0530,
