stimulus_image,correct_response,thisN,thisTrialN,thisRepN,key_resp.keys,key_resp.corr,key_resp.rt,key_resp.duration,loop.thisRepN,loop.thisTrialN,loop.thisN,loop.thisIndex,thisRow.t,notes,guide.started,instructions.started,ins_resp.started,guide.stopped,ins_resp.keys,ins_resp.rt,ins_resp.duration,guide_2.started,text.started,key_resp_2.started,guide_2.stopped,key_resp_2.keys,key_resp_2.rt,key_resp_2.duration,trial.started,fixation.started,image.started,key_resp.started,fixation.stopped,image.stopped,trial.stopped,loop.key_resp.keys,loop.key_resp.corr,key_resp.stopped,loop.key_resp.rt,loop.key_resp.duration,participant,session,date,expName,psychopyVersion,frameRate,expStart,
,,,,,,,,,,,,,,,0.004267500014975667,0.010604500072076917,0.010604500072076917,23.005813100142404,space,22.98373720003292,None,,,,,,,,,,,,,,,,,,,,DY20,108,2025-04-01_15h48.23.081,416_EXPERIMENT_PSYCHOPY_AU2220019_AU2220225,2024.2.4,59.56554086447175,2025-04-01 15h51.14.695349 +0530,
,,,,,,,,,,,,,,,,,,,,,,23.00590390013531,23.012723400024697,23.012723400024697,27.262572900159284,space,4.2404325001407415,None,,,,,,,,,,,,,DY20,108,2025-04-01_15h48.23.081,416_EXPERIMENT_PSYCHOPY_AU2220019_AU2220225,2024.2.4,59.56554086447175,2025-04-01 15h51.14.695349 +0530,
surprise_upper_blur.jpg,s,0,0,0,None,0,,,0,0,0,4,27.37844920018688,,,,,,,,,,,,,,,,27.37196879996918,27.37844920018688,28.789401000132784,28.789401000132784,28.892221700167283,29.292466200189665,29.525468500098214,None,0,,,,DY20,108,2025-04-01_15h48.23.081,416_EXPERIMENT_PSYCHOPY_AU2220019_AU2220225,2024.2.4,59.56554086447175,2025-04-01 15h51.14.695349 +0530,
fear_lower_blur.jpg,f,1,1,0,None,0,,,0,1,1,3,29.54474090016447,,,,,,,,,,,,,,,,29.53943550004624,29.54474090016447,31.026928700041026,31.026928700041026,31.06095160008408,31.542048500152305,31.761834900127724,None,0,31.780791400000453,,,DY20,108,2025-04-01_15h48.23.081,416_EXPERIMENT_PSYCHOPY_AU2220019_AU2220225,2024.2.4,59.56554086447175,2025-04-01 15h51.14.695349 +0530,
fear_upper_blur.jpg,f,2,2,0,s,0,0.5780065001454204,None,0,2,2,2,31.780791400000453,,,,,,,,,,,,,,,,31.775789899984375,31.780791400000453,33.27616180013865,33.27616180013865,33.29210059996694,33.77740080002695,33.86294240015559,s,0,,0.5780065001454204,None,DY20,108,2025-04-01_15h48.23.081,416_EXPERIMENT_PSYCHOPY_AU2220019_AU2220225,2024.2.4,59.56554086447175,2025-04-01 15h51.14.695349 +0530,
fear.jpg,f,3,3,0,f,1,0.3383889999240637,None,0,3,3,0,33.883013600017875,,,,,,,,,,,,,,,,33.87752390000969,33.883013600017875,35.37744930014014,35.37744930014014,35.39404070004821,,35.72944540018216,f,1,,0.3383889999240637,None,DY20,108,2025-04-01_15h48.23.081,416_EXPERIMENT_PSYCHOPY_AU2220019_AU2220225,2024.2.4,59.56554086447175,2025-04-01 15h51.14.695349 +0530,
surprise.jpg,s,4,4,0,s,1,0.4559855000115931,None,0,4,4,1,35.74941539997235,,,,,,,,,,,,,,,,35.74368810001761,35.74941539997235,37.24268850008957,37.24268850008957,37.25997530017048,,37.7124036999885,s,1,,0.4559855000115931,None,DY20,108,2025-04-01_15h48.23.081,416_EXPERIMENT_PSYCHOPY_AU2220019_AU2220225,2024.2.4,59.56554086447175,2025-04-01 15h51.14.695349 +0530,
surprise_lower_blur.jpg,s,5,5,0,s,1,0.541373300133273,None,0,5,5,5,37.73273460008204,,,,,,,,,,,,,,,,37.7262870001141,37.73273460008204,39.22690290003084,39.22690290003084,39.24392550019547,39.72707840008661,39.779172900132835,s,1,,0.541373300133273,None,DY20,108,2025-04-01_15h48.23.081,416_EXPERIMENT_PSYCHOPY_AU2220019_AU2220225,2024.2.4,59.56554086447175,2025-04-01 15h51.14.695349 +0530,
surprise_upper_blur.jpg,s,6,0,1,f,0,0.40306829987093806,None,1,0,6,4,39.79854350001551,,,,,,,,,,,,,,,,39.79256259999238,39.79854350001551,41.293724100105464,41.293724100105464,41.310600799974054,,41.70994219998829,f,0,,0.40306829987093806,None,DY20,108,2025-04-01_15h48.23.081,416_EXPERIMENT_PSYCHOPY_AU2220019_AU2220225,2024.2.4,59.56554086447175,2025-04-01 15h51.14.695349 +0530,
fear.jpg,f,7,1,1,f,1,0.3636128001380712,None,1,1,7,0,41.72948199999519,,,,,,,,,,,,,,,,41.724550700047985,41.72948199999519,43.2091602999717,43.2091602999717,43.24360170005821,,43.58070380007848,f,1,,0.3636128001380712,None,DY20,108,2025-04-01_15h48.23.081,416_EXPERIMENT_PSYCHOPY_AU2220019_AU2220225,2024.2.4,59.56554086447175,2025-04-01 15h51.14.695349 +0530,
fear_lower_blur.jpg,f,8,2,1,f,1,0.42955509992316365,None,1,2,8,3,43.5994790000841,,,,,,,,,,,,,,,,43.59384790016338,43.5994790000841,45.09385449998081,45.09385449998081,45.11032730014995,,45.52975420001894,f,1,,0.42955509992316365,None,DY20,108,2025-04-01_15h48.23.081,416_EXPERIMENT_PSYCHOPY_AU2220019_AU2220225,2024.2.4,59.56554086447175,2025-04-01 15h51.14.695349 +0530,
surprise_lower_blur.jpg,s,9,3,1,s,1,0.41357399988919497,None,1,3,9,5,45.54853240004741,,,,,,,,,,,,,,,,45.5433253000956,45.54853240004741,47.04180260002613,47.04180260002613,47.05831560003571,,47.46283169998787,s,1,,0.41357399988919497,None,DY20,108,2025-04-01_15h48.23.081,416_EXPERIMENT_PSYCHOPY_AU2220019_AU2220225,2024.2.4,59.56554086447175,2025-04-01 15h51.14.695349 +0530,
fear_upper_blur.jpg,f,10,4,1,f,1,0.41779029997996986,None,1,4,10,2,47.48352590017021,,,,,,,,,,,,,,,,47.47795950016007,47.48352590017021,48.977288000052795,48.977288000052795,48.994272500043735,,49.41227290011011,f,1,,0.41779029997996986,None,DY20,108,2025-04-01_15h48.23.081,416_EXPERIMENT_PSYCHOPY_AU2220019_AU2220225,2024.2.4,59.56554086447175,2025-04-01 15h51.14.695349 +0530,
surprise.jpg,s,11,5,1,s,1,0.5244849000591785,None,1,5,11,1,49.43240589997731,,,,,,,,,,,,,,,,49.426296500023454,49.43240589997731,50.92546990001574,50.92546990001574,50.943094399990514,51.42715290002525,51.46245090011507,s,1,,0.5244849000591785,None,DY20,108,2025-04-01_15h48.23.081,416_EXPERIMENT_PSYCHOPY_AU2220019_AU2220225,2024.2.4,59.56554086447175,2025-04-01 15h51.14.695349 +0530,
surprise_lower_blur.jpg,s,12,0,2,s,1,0.44552750000730157,None,2,0,12,5,51.48112910008058,,,,,,,,,,,,,,,,51.475751999998465,51.48112910008058,52.977329100016505,52.977329100016505,52.99461150006391,,53.428891899995506,s,1,,0.44552750000730157,None,DY20,108,2025-04-01_15h48.23.081,416_EXPERIMENT_PSYCHOPY_AU2220019_AU2220225,2024.2.4,59.56554086447175,2025-04-01 15h51.14.695349 +0530,
surprise.jpg,s,13,1,2,f,0,0.3609750000759959,None,2,1,13,1,53.450097900116816,,,,,,,,,,,,,,,,53.44394140015356,53.450097900116816,54.94179280009121,54.94179280009121,54.959983200067654,,55.31167310010642,f,0,,0.3609750000759959,None,DY20,108,2025-04-01_15h48.23.081,416_EXPERIMENT_PSYCHOPY_AU2220019_AU2220225,2024.2.4,59.56554086447175,2025-04-01 15h51.14.695349 +0530,
fear_upper_blur.jpg,f,14,2,2,s,0,0.5374943998176605,None,2,2,14,2,55.32734400010668,,,,,,,,,,,,,,,,55.3218235000968,55.32734400010668,56.82772410009056,56.82772410009056,56.82772410009056,57.327425100142136,57.379012500168756,s,0,,0.5374943998176605,None,DY20,108,2025-04-01_15h48.23.081,416_EXPERIMENT_PSYCHOPY_AU2220019_AU2220225,2024.2.4,59.56554086447175,2025-04-01 15h51.14.695349 +0530,
surprise_upper_blur.jpg,s,15,3,2,f,0,0.4221963998861611,None,2,3,15,4,57.39808120019734,,,,,,,,,,,,,,,,57.39234510017559,57.39808120019734,58.891864300007,58.891864300007,58.90965800010599,,59.32898460002616,f,0,,0.4221963998861611,None,DY20,108,2025-04-01_15h48.23.081,416_EXPERIMENT_PSYCHOPY_AU2220019_AU2220225,2024.2.4,59.56554086447175,2025-04-01 15h51.14.695349 +0530,
fear_lower_blur.jpg,f,16,4,2,s,0,0.4309864998795092,None,2,4,16,3,59.3442923000548,,,,,,,,,,,,,,,,59.33926250017248,59.3442923000548,60.841764400014654,60.841764400014654,60.86012100009248,,61.27968930010684,s,0,,0.4309864998795092,None,DY20,108,2025-04-01_15h48.23.081,416_EXPERIMENT_PSYCHOPY_AU2220019_AU2220225,2024.2.4,59.56554086447175,2025-04-01 15h51.14.695349 +0530,
fear.jpg,f,17,5,2,s,0,0.3079844999592751,None,2,5,17,0,61.29951210017316,,,,,,,,,,,,,,,,61.29406910017133,61.29951210017316,62.793623000150546,62.793623000150546,62.810785399982706,,63.11221050005406,s,0,,0.3079844999592751,None,DY20,108,2025-04-01_15h48.23.081,416_EXPERIMENT_PSYCHOPY_AU2220019_AU2220225,2024.2.4,59.56554086447175,2025-04-01 15h51.14.695349 +0530,
surprise_lower_blur.jpg,s,18,0,3,s,1,0.25715159997344017,None,3,0,18,5,63.12902650004253,,,,,,,,,,,,,,,,63.12368470011279,63.12902650004253,64.62746900017373,64.62746900017373,64.6435365001671,,64.8963173001539,s,1,,0.25715159997344017,None,DY20,108,2025-04-01_15h48.23.081,416_EXPERIMENT_PSYCHOPY_AU2220019_AU2220225,2024.2.4,59.56554086447175,2025-04-01 15h51.14.695349 +0530,
fear_lower_blur.jpg,f,19,1,3,s,0,0.545879099983722,None,3,1,19,3,64.91594150010496,,,,,,,,,,,,,,,,64.9100758000277,64.91594150010496,66.41034820000641,66.41034820000641,66.42728270008229,66.91076570004225,66.96331650018692,s,0,,0.545879099983722,None,DY20,108,2025-04-01_15h48.23.081,416_EXPERIMENT_PSYCHOPY_AU2220019_AU2220225,2024.2.4,59.56554086447175,2025-04-01 15h51.14.695349 +0530,
surprise_upper_blur.jpg,s,20,2,3,None,0,,,3,2,20,4,66.9828298999928,,,,,,,,,,,,,,,,66.97723220009357,66.9828298999928,68.47592560015619,68.47592560015619,68.49384800018743,68.97652690019459,69.210083700018,None,0,69.22928730002604,,,DY20,108,2025-04-01_15h48.23.081,416_EXPERIMENT_PSYCHOPY_AU2220019_AU2220225,2024.2.4,59.56554086447175,2025-04-01 15h51.14.695349 +0530,
fear.jpg,f,21,3,3,f,1,0.2837017001584172,None,3,3,21,0,69.22928730002604,,,,,,,,,,,,,,,,69.2239600000903,69.22928730002604,70.72784980013967,70.72784980013967,70.74453410017304,,71.0153169000987,f,1,,0.2837017001584172,None,DY20,108,2025-04-01_15h48.23.081,416_EXPERIMENT_PSYCHOPY_AU2220019_AU2220225,2024.2.4,59.56554086447175,2025-04-01 15h51.14.695349 +0530,
fear_upper_blur.jpg,f,22,4,3,s,0,0.37037359992973506,None,3,4,22,2,71.03436839999631,,,,,,,,,,,,,,,,71.02870700019412,71.03436839999631,72.52749780006707,72.52749780006707,72.54490910004824,,72.91311760013923,s,0,,0.37037359992973506,None,DY20,108,2025-04-01_15h48.23.081,416_EXPERIMENT_PSYCHOPY_AU2220019_AU2220225,2024.2.4,59.56554086447175,2025-04-01 15h51.14.695349 +0530,
surprise.jpg,s,23,5,3,s,1,0.5139627000316978,None,3,5,23,1,72.9314757999964,,,,,,,,,,,,,,,,72.9261074999813,72.9314757999964,74.4260892001912,74.4260892001912,74.44270550017245,74.94167940015905,74.94322150014341,s,1,,0.5139627000316978,None,DY20,108,2025-04-01_15h48.23.081,416_EXPERIMENT_PSYCHOPY_AU2220019_AU2220225,2024.2.4,59.56554086447175,2025-04-01 15h51.14.695349 +0530,
surprise.jpg,s,24,0,4,f,0,0.3950745000038296,None,4,0,24,1,74.96145320008509,,,,,,,,,,,,,,,,74.95389050012454,74.96145320008509,76.44453440001234,76.44453440001234,76.46102300006896,,76.84691100008786,f,0,,0.3950745000038296,None,DY20,108,2025-04-01_15h48.23.081,416_EXPERIMENT_PSYCHOPY_AU2220019_AU2220225,2024.2.4,59.56554086447175,2025-04-01 15h51.14.695349 +0530,
fear.jpg,f,25,1,4,s,0,0.629442699952051,None,4,1,25,0,76.86714630015194,,,,,,,,,,,,,,,,76.86126659996808,76.86714630015194,78.35953270015307,78.35953270015307,78.37611820013262,78.86113650002517,78.99643860012293,s,0,,0.629442699952051,None,DY20,108,2025-04-01_15h48.23.081,416_EXPERIMENT_PSYCHOPY_AU2220019_AU2220225,2024.2.4,59.56554086447175,2025-04-01 15h51.14.695349 +0530,
surprise_lower_blur.jpg,s,26,2,4,s,1,0.41327810008078814,None,4,2,26,5,79.01623940002173,,,,,,,,,,,,,,,,79.01057430007495,79.01623940002173,80.50913090002723,80.50913090002723,80.5260755000636,,80.93089299998246,s,1,,0.41327810008078814,None,DY20,108,2025-04-01_15h48.23.081,416_EXPERIMENT_PSYCHOPY_AU2220019_AU2220225,2024.2.4,59.56554086447175,2025-04-01 15h51.14.695349 +0530,
fear_lower_blur.jpg,f,27,3,4,f,1,0.5624369999859482,None,4,3,27,3,80.9510459001176,,,,,,,,,,,,,,,,80.94508690014482,80.9510459001176,82.44467850006185,82.44467850006185,82.46137779997662,82.94470110000111,83.01402280014008,f,1,,0.5624369999859482,None,DY20,108,2025-04-01_15h48.23.081,416_EXPERIMENT_PSYCHOPY_AU2220019_AU2220225,2024.2.4,59.56554086447175,2025-04-01 15h51.14.695349 +0530,
fear_upper_blur.jpg,f,28,4,4,s,0,0.3530083999503404,None,4,4,28,2,83.0336151001975,,,,,,,,,,,,,,,,83.02791030006483,83.0336151001975,84.52606689999811,84.52606689999811,84.54325790004805,,84.89555370016024,s,0,,0.3530083999503404,None,DY20,108,2025-04-01_15h48.23.081,416_EXPERIMENT_PSYCHOPY_AU2220019_AU2220225,2024.2.4,59.56554086447175,2025-04-01 15h51.14.695349 +0530,
surprise_upper_blur.jpg,s,29,5,4,f,0,0.3816097001545131,None,4,5,29,4,84.9121503001079,,,,,,,,,,,,,,,,84.90647120005451,84.9121503001079,86.41140890005045,86.41140890005045,86.42615399998613,,86.7967110001482,f,0,,0.3816097001545131,None,DY20,108,2025-04-01_15h48.23.081,416_EXPERIMENT_PSYCHOPY_AU2220019_AU2220225,2024.2.4,59.56554086447175,2025-04-01 15h51.14.695349 +0530,
fear_lower_blur.jpg,f,30,0,5,f,1,0.36296049994416535,None,5,0,30,3,86.81350010004826,,,,,,,,,,,,,,,,86.80906830006279,86.81350010004826,88.31077960017137,88.31077960017137,88.32777370000258,,88.68094970006496,f,1,,0.36296049994416535,None,DY20,108,2025-04-01_15h48.23.081,416_EXPERIMENT_PSYCHOPY_AU2220019_AU2220225,2024.2.4,59.56554086447175,2025-04-01 15h51.14.695349 +0530,
surprise_upper_blur.jpg,s,31,1,5,f,0,0.5639784999657422,None,5,1,31,4,88.70122559997253,,,,,,,,,,,,,,,,88.69492810009979,88.70122559997253,90.19492599996738,90.19492599996738,90.21112100011669,90.71062340005301,90.76253860001452,f,0,,0.5639784999657422,None,DY20,108,2025-04-01_15h48.23.081,416_EXPERIMENT_PSYCHOPY_AU2220019_AU2220225,2024.2.4,59.56554086447175,2025-04-01 15h51.14.695349 +0530,
surprise.jpg,s,32,2,5,s,1,0.35178599995560944,None,5,2,32,1,90.78325049998239,,,,,,,,,,,,,,,,90.77772050001658,90.78325049998239,92.27577419998124,92.27577419998124,92.29241510014981,,92.63121510017663,s,1,,0.35178599995560944,None,DY20,108,2025-04-01_15h48.23.081,416_EXPERIMENT_PSYCHOPY_AU2220019_AU2220225,2024.2.4,59.56554086447175,2025-04-01 15h51.14.695349 +0530,
fear.jpg,f,33,3,5,f,1,0.4026762000285089,None,5,3,33,0,92.6519389001187,,,,,,,,,,,,,,,,92.64587370003574,92.6519389001187,94.1443507000804,94.1443507000804,94.16142580006272,,94.56340049998835,f,1,,0.4026762000285089,None,DY20,108,2025-04-01_15h48.23.081,416_EXPERIMENT_PSYCHOPY_AU2220019_AU2220225,2024.2.4,59.56554086447175,2025-04-01 15h51.14.695349 +0530,
fear_upper_blur.jpg,f,34,4,5,f,1,0.6274532000534236,None,5,4,34,2,94.58274159999564,,,,,,,,,,,,,,,,94.57739890017547,94.58274159999564,96.07772140018642,96.07772140018642,96.09428690001369,96.59431400010362,96.71166240004823,f,1,,0.6274532000534236,None,DY20,108,2025-04-01_15h48.23.081,416_EXPERIMENT_PSYCHOPY_AU2220019_AU2220225,2024.2.4,59.56554086447175,2025-04-01 15h51.14.695349 +0530,
surprise_lower_blur.jpg,s,35,5,5,s,1,0.3511230000294745,None,5,5,35,5,96.73069900018163,,,,,,,,,,,,,,,,96.72520620003343,96.73069900018163,98.22704610018991,98.22704610018991,98.24391730013303,,98.58172560017556,s,1,,0.3511230000294745,None,DY20,108,2025-04-01_15h48.23.081,416_EXPERIMENT_PSYCHOPY_AU2220019_AU2220225,2024.2.4,59.56554086447175,2025-04-01 15h51.14.695349 +0530,
fear_lower_blur.jpg,f,36,0,6,s,0,0.44982750015333295,None,6,0,36,3,98.60150940017775,,,,,,,,,,,,,,,,98.59565380006097,98.60150940017775,100.09362539998256,100.09362539998256,100.11087039997801,,100.54667520010844,s,0,,0.44982750015333295,None,DY20,108,2025-04-01_15h48.23.081,416_EXPERIMENT_PSYCHOPY_AU2220019_AU2220225,2024.2.4,59.56554086447175,2025-04-01 15h51.14.695349 +0530,
fear_upper_blur.jpg,f,37,1,6,s,0,0.5607783999294043,None,6,1,37,2,100.56707190000452,,,,,,,,,,,,,,,,100.56062630005181,100.56707190000452,102.0610501000192,102.0610501000192,102.07715760008432,102.57567839999683,102.6291275001131,s,0,,0.5607783999294043,None,DY20,108,2025-04-01_15h48.23.081,416_EXPERIMENT_PSYCHOPY_AU2220019_AU2220225,2024.2.4,59.56554086447175,2025-04-01 15h51.14.695349 +0530,
surprise_upper_blur.jpg,s,38,2,6,f,0,0.6493828999809921,None,6,2,38,4,102.64793350012042,,,,,,,,,,,,,,,,102.64240570017137,102.64793350012042,104.14393560006283,104.14393560006283,104.16067530005239,104.65890719997697,104.7967304000631,f,0,,0.6493828999809921,None,DY20,108,2025-04-01_15h48.23.081,416_EXPERIMENT_PSYCHOPY_AU2220019_AU2220225,2024.2.4,59.56554086447175,2025-04-01 15h51.14.695349 +0530,
fear.jpg,f,39,3,6,f,1,0.4937132999766618,None,6,3,39,0,104.81657900009304,,,,,,,,,,,,,,,,104.81091210013255,104.81657900009304,106.30836000014096,106.30836000014096,106.32511390000582,106.80898179998621,106.81080590002239,f,1,,0.4937132999766618,None,DY20,108,2025-04-01_15h48.23.081,416_EXPERIMENT_PSYCHOPY_AU2220019_AU2220225,2024.2.4,59.56554086447175,2025-04-01 15h51.14.695349 +0530,
surprise.jpg,s,40,4,6,f,0,0.5144382000435144,None,6,4,40,1,106.82778510008939,,,,,,,,,,,,,,,,106.82276850007474,106.82778510008939,108.31073440006003,108.31073440006003,108.32690990017727,108.80951020005159,108.82973470003344,f,0,,0.5144382000435144,None,DY20,108,2025-04-01_15h48.23.081,416_EXPERIMENT_PSYCHOPY_AU2220019_AU2220225,2024.2.4,59.56554086447175,2025-04-01 15h51.14.695349 +0530,
surprise_lower_blur.jpg,s,41,5,6,f,0,0.5098630001302809,None,6,5,41,5,108.8454266001936,,,,,,,,,,,,,,,,108.8401532000862,108.8454266001936,110.3435449001845,110.3435449001845,110.36047539999709,110.8584696999751,110.8599251001142,f,0,,0.5098630001302809,None,DY20,108,2025-04-01_15h48.23.081,416_EXPERIMENT_PSYCHOPY_AU2220019_AU2220225,2024.2.4,59.56554086447175,2025-04-01 15h51.14.695349 +0530,
surprise_lower_blur.jpg,s,42,0,7,s,1,0.5469545999076217,None,7,0,42,5,110.87988070002757,,,,,,,,,,,,,,,,110.87383350008167,110.87988070002757,112.36035010009073,112.36035010009073,112.39394430001266,112.87703109998256,112.91307270014659,s,1,,0.5469545999076217,None,DY20,108,2025-04-01_15h48.23.081,416_EXPERIMENT_PSYCHOPY_AU2220019_AU2220225,2024.2.4,59.56554086447175,2025-04-01 15h51.14.695349 +0530,
surprise.jpg,s,43,1,7,None,0,,,7,1,43,1,112.93373770010658,,,,,,,,,,,,,,,,112.92801870009862,112.93373770010658,114.42517160018906,114.42517160018906,114.44170810002834,114.92873030016199,115.1620569000952,None,0,115.18153840000741,,,DY20,108,2025-04-01_15h48.23.081,416_EXPERIMENT_PSYCHOPY_AU2220019_AU2220225,2024.2.4,59.56554086447175,2025-04-01 15h51.14.695349 +0530,
surprise_upper_blur.jpg,s,44,2,7,s,1,0.5455692999530584,None,7,2,44,4,115.18153840000741,,,,,,,,,,,,,,,,115.17649780004285,115.18153840000741,116.67689460003749,116.67689460003749,116.69447440002114,117.17728790012188,117.22704880009405,s,1,,0.5455692999530584,None,DY20,108,2025-04-01_15h48.23.081,416_EXPERIMENT_PSYCHOPY_AU2220019_AU2220225,2024.2.4,59.56554086447175,2025-04-01 15h51.14.695349 +0530,
fear_upper_blur.jpg,f,45,3,7,f,1,0.3345282000955194,None,7,3,45,2,117.24712519999593,,,,,,,,,,,,,,,,117.24193190014921,117.24712519999593,118.72706800000742,118.72706800000742,118.76014739996754,,119.07833710010163,f,1,,0.3345282000955194,None,DY20,108,2025-04-01_15h48.23.081,416_EXPERIMENT_PSYCHOPY_AU2220019_AU2220225,2024.2.4,59.56554086447175,2025-04-01 15h51.14.695349 +0530,
fear_lower_blur.jpg,f,46,4,7,f,1,0.5401454998645931,None,7,4,46,3,119.09701500018127,,,,,,,,,,,,,,,,119.09117919998243,119.09701500018127,120.5934419000987,120.5934419000987,120.6112459001597,121.0941177001223,121.14612180017866,f,1,,0.5401454998645931,None,DY20,108,2025-04-01_15h48.23.081,416_EXPERIMENT_PSYCHOPY_AU2220019_AU2220225,2024.2.4,59.56554086447175,2025-04-01 15h51.14.695349 +0530,
fear.jpg,f,47,5,7,s,0,0.44732720009051263,None,7,5,47,0,121.16583130019717,,,,,,,,,,,,,,,,121.16073190001771,121.16583130019717,122.66075769998133,122.66075769998133,122.67701810016297,,123.11366310017183,s,0,,0.44732720009051263,None,DY20,108,2025-04-01_15h48.23.081,416_EXPERIMENT_PSYCHOPY_AU2220019_AU2220225,2024.2.4,59.56554086447175,2025-04-01 15h51.14.695349 +0530,
fear_upper_blur.jpg,f,48,0,8,f,1,0.31790439994074404,None,8,0,48,2,123.13299149996601,,,,,,,,,,,,,,,,123.127293900121,123.13299149996601,124.62646770011634,124.62646770011634,124.64202160015702,,124.9476742001716,f,1,,0.31790439994074404,None,DY20,108,2025-04-01_15h48.23.081,416_EXPERIMENT_PSYCHOPY_AU2220019_AU2220225,2024.2.4,59.56554086447175,2025-04-01 15h51.14.695349 +0530,
surprise_lower_blur.jpg,s,49,1,8,f,0,0.3616363999899477,None,8,1,49,5,124.96722910017706,,,,,,,,,,,,,,,,124.96204190002754,124.96722910017706,126.46020520012826,126.46020520012826,126.4752345001325,,126.82924590003677,f,0,,0.3616363999899477,None,DY20,108,2025-04-01_15h48.23.081,416_EXPERIMENT_PSYCHOPY_AU2220019_AU2220225,2024.2.4,59.56554086447175,2025-04-01 15h51.14.695349 +0530,
surprise.jpg,s,50,2,8,f,0,0.35969710000790656,None,8,2,50,1,126.8490230999887,,,,,,,,,,,,,,,,126.84384290012531,126.8490230999887,128.3433304000646,128.3433304000646,128.35848210006952,,128.7120811000932,f,0,,0.35969710000790656,None,DY20,108,2025-04-01_15h48.23.081,416_EXPERIMENT_PSYCHOPY_AU2220019_AU2220225,2024.2.4,59.56554086447175,2025-04-01 15h51.14.695349 +0530,
surprise_upper_blur.jpg,s,51,3,8,f,0,0.35826869984157383,None,8,3,51,4,128.72978930012323,,,,,,,,,,,,,,,,128.72511200001463,128.72978930012323,130.22731850016862,130.22731850016862,130.24429469997995,,130.59563440014608,f,0,,0.35826869984157383,None,DY20,108,2025-04-01_15h48.23.081,416_EXPERIMENT_PSYCHOPY_AU2220019_AU2220225,2024.2.4,59.56554086447175,2025-04-01 15h51.14.695349 +0530,
fear.jpg,f,52,4,8,s,0,0.39335679984651506,None,8,4,52,0,130.6158450001385,,,,,,,,,,,,,,,,130.61034420016222,130.6158450001385,132.11070790002123,132.11070790002123,132.12684460007586,,132.51264510001056,s,0,,0.39335679984651506,None,DY20,108,2025-04-01_15h48.23.081,416_EXPERIMENT_PSYCHOPY_AU2220019_AU2220225,2024.2.4,59.56554086447175,2025-04-01 15h51.14.695349 +0530,
fear_lower_blur.jpg,f,53,5,8,s,0,0.35723600001074374,None,8,5,53,3,132.5323222000152,,,,,,,,,,,,,,,,132.52656240016222,132.5323222000152,134.02555400016718,134.02555400016718,134.04213110008277,,134.39653090015054,s,0,,0.35723600001074374,None,DY20,108,2025-04-01_15h48.23.081,416_EXPERIMENT_PSYCHOPY_AU2220019_AU2220225,2024.2.4,59.56554086447175,2025-04-01 15h51.14.695349 +0530,
fear_upper_blur.jpg,f,54,0,9,f,1,0.4285823998507112,None,9,0,54,2,134.4163176000584,,,,,,,,,,,,,,,,134.41015160013922,134.4163176000584,135.91018650005572,135.91018650005572,135.92530740005895,,136.3465782001149,f,1,,0.4285823998507112,None,DY20,108,2025-04-01_15h48.23.081,416_EXPERIMENT_PSYCHOPY_AU2220019_AU2220225,2024.2.4,59.56554086447175,2025-04-01 15h51.14.695349 +0530,
surprise_lower_blur.jpg,s,55,1,9,s,1,0.2930725000333041,None,9,1,55,5,136.3658962000627,,,,,,,,,,,,,,,,136.36036449996755,136.3658962000627,137.8607650999911,137.8607650999911,137.87701410008594,,138.16244020010345,s,1,,0.2930725000333041,None,DY20,108,2025-04-01_15h48.23.081,416_EXPERIMENT_PSYCHOPY_AU2220019_AU2220225,2024.2.4,59.56554086447175,2025-04-01 15h51.14.695349 +0530,
surprise.jpg,s,56,2,9,f,0,0.39886810001917183,None,9,2,56,1,138.1839780001901,,,,,,,,,,,,,,,,138.17845790018328,138.1839780001901,139.67740410007536,139.67740410007536,139.69367310008965,,140.08029219997115,f,0,,0.39886810001917183,None,DY20,108,2025-04-01_15h48.23.081,416_EXPERIMENT_PSYCHOPY_AU2220019_AU2220225,2024.2.4,59.56554086447175,2025-04-01 15h51.14.695349 +0530,
surprise_upper_blur.jpg,s,57,3,9,f,0,0.5689147999510169,None,9,3,57,4,140.09970090002753,,,,,,,,,,,,,,,,140.09432970010675,140.09970090002753,141.5917581000831,141.5917581000831,141.6082558000926,142.09302840009332,142.16423530015163,f,0,,0.5689147999510169,None,DY20,108,2025-04-01_15h48.23.081,416_EXPERIMENT_PSYCHOPY_AU2220019_AU2220225,2024.2.4,59.56554086447175,2025-04-01 15h51.14.695349 +0530,
fear_lower_blur.jpg,f,58,4,9,s,0,0.3101800000295043,None,9,4,58,3,142.18089720001444,,,,,,,,,,,,,,,,142.1760956000071,142.18089720001444,143.67853430006653,143.67853430006653,143.69418520014733,,143.9937436999753,s,0,,0.3101800000295043,None,DY20,108,2025-04-01_15h48.23.081,416_EXPERIMENT_PSYCHOPY_AU2220019_AU2220225,2024.2.4,59.56554086447175,2025-04-01 15h51.14.695349 +0530,
fear.jpg,f,59,5,9,f,1,0.3320453001651913,None,9,5,59,0,144.0140172999818,,,,,,,,,,,,,,,,144.00867550005205,144.0140172999818,145.49402020010166,145.49402020010166,145.52739439997822,,145.82952719996683,f,1,,0.3320453001651913,None,DY20,108,2025-04-01_15h48.23.081,416_EXPERIMENT_PSYCHOPY_AU2220019_AU2220225,2024.2.4,59.56554086447175,2025-04-01 15h51.14.695349 +0530,
surprise.jpg,s,60,0,10,s,1,0.3742433001752943,None,10,0,60,1,145.84936750005,,,,,,,,,,,,,,,,145.84412600006908,145.84936750005,147.34412640007213,147.34412640007213,147.36119200009853,,147.7293250001967,s,1,,0.3742433001752943,None,DY20,108,2025-04-01_15h48.23.081,416_EXPERIMENT_PSYCHOPY_AU2220019_AU2220225,2024.2.4,59.56554086447175,2025-04-01 15h51.14.695349 +0530,
fear_upper_blur.jpg,f,61,1,10,s,0,0.41656759986653924,None,10,1,61,2,147.74830750003457,,,,,,,,,,,,,,,,147.74286970007233,147.74830750003457,149.24432649998926,149.24432649998926,149.26086230017245,,149.6773479001131,s,0,,0.41656759986653924,None,DY20,108,2025-04-01_15h48.23.081,416_EXPERIMENT_PSYCHOPY_AU2220019_AU2220225,2024.2.4,59.56554086447175,2025-04-01 15h51.14.695349 +0530,
surprise_upper_blur.jpg,s,62,2,10,f,0,0.38157019997015595,None,10,2,62,4,149.69616050017066,,,,,,,,,,,,,,,,149.69050909997895,149.69616050017066,151.17720669996925,151.17720669996925,151.2106465001125,,151.56349160009995,f,0,,0.38157019997015595,None,DY20,108,2025-04-01_15h48.23.081,416_EXPERIMENT_PSYCHOPY_AU2220019_AU2220225,2024.2.4,59.56554086447175,2025-04-01 15h51.14.695349 +0530,
fear_lower_blur.jpg,f,63,3,10,f,1,0.4327388999518007,None,10,3,63,3,151.58401300013065,,,,,,,,,,,,,,,,151.57805810007267,151.58401300013065,153.07715160003863,153.07715160003863,153.09383210004307,,153.51284440001473,f,1,,0.4327388999518007,None,DY20,108,2025-04-01_15h48.23.081,416_EXPERIMENT_PSYCHOPY_AU2220019_AU2220225,2024.2.4,59.56554086447175,2025-04-01 15h51.14.695349 +0530,
fear.jpg,f,64,4,10,s,0,0.3262479000259191,None,10,4,64,0,153.53269050014205,,,,,,,,,,,,,,,,153.5276262999978,153.53269050014205,155.0271427000407,155.0271427000407,155.04380820016377,,155.3600340001285,s,0,,0.3262479000259191,None,DY20,108,2025-04-01_15h48.23.081,416_EXPERIMENT_PSYCHOPY_AU2220019_AU2220225,2024.2.4,59.56554086447175,2025-04-01 15h51.14.695349 +0530,
surprise_lower_blur.jpg,s,65,5,10,s,1,0.6377932999748737,None,10,5,65,5,155.37872850010172,,,,,,,,,,,,,,,,155.3732420001179,155.37872850010172,156.86009600013494,156.86009600013494,156.89205330004916,157.36063650017604,157.5125692000147,s,1,,0.6377932999748737,None,DY20,108,2025-04-01_15h48.23.081,416_EXPERIMENT_PSYCHOPY_AU2220019_AU2220225,2024.2.4,59.56554086447175,2025-04-01 15h51.14.695349 +0530,
fear_lower_blur.jpg,f,66,0,11,f,1,0.4280874999240041,None,11,0,66,3,157.5311833000742,,,,,,,,,,,,,,,,157.52592070004903,157.5311833000742,159.02695060009137,159.02695060009137,159.04404489998706,,159.46180210006423,f,1,,0.4280874999240041,None,DY20,108,2025-04-01_15h48.23.081,416_EXPERIMENT_PSYCHOPY_AU2220019_AU2220225,2024.2.4,59.56554086447175,2025-04-01 15h51.14.695349 +0530,
surprise.jpg,s,67,1,11,f,0,0.4430600998457521,None,11,1,67,1,159.48069060011767,,,,,,,,,,,,,,,,159.47508200001903,159.48069060011767,160.97727260016836,160.97727260016836,160.9942235001363,,161.42868640017696,f,0,,0.4430600998457521,None,DY20,108,2025-04-01_15h48.23.081,416_EXPERIMENT_PSYCHOPY_AU2220019_AU2220225,2024.2.4,59.56554086447175,2025-04-01 15h51.14.695349 +0530,
surprise_lower_blur.jpg,s,68,2,11,f,0,0.3724919999949634,None,11,2,68,5,161.4476584000513,,,,,,,,,,,,,,,,161.44196350011043,161.4476584000513,162.94414420006797,162.94414420006797,162.9606346001383,,163.32895830017515,f,0,,0.3724919999949634,None,DY20,108,2025-04-01_15h48.23.081,416_EXPERIMENT_PSYCHOPY_AU2220019_AU2220225,2024.2.4,59.56554086447175,2025-04-01 15h51.14.695349 +0530,
fear.jpg,f,69,3,11,f,1,0.334183800034225,None,11,3,69,0,163.34898140002042,,,,,,,,,,,,,,,,163.34295059996657,163.34898140002042,164.8441115000751,164.8441115000751,164.85970320017077,,165.18121930002235,f,1,,0.334183800034225,None,DY20,108,2025-04-01_15h48.23.081,416_EXPERIMENT_PSYCHOPY_AU2220019_AU2220225,2024.2.4,59.56554086447175,2025-04-01 15h51.14.695349 +0530,
surprise_upper_blur.jpg,s,70,4,11,f,0,0.5625309001188725,None,11,4,70,4,165.20091160014272,,,,,,,,,,,,,,,,165.19540450000204,165.20091160014272,166.69420220004395,166.69420220004395,166.71063410001807,167.1940947000403,167.26388990017585,f,0,,0.5625309001188725,None,DY20,108,2025-04-01_15h48.23.081,416_EXPERIMENT_PSYCHOPY_AU2220019_AU2220225,2024.2.4,59.56554086447175,2025-04-01 15h51.14.695349 +0530,
fear_upper_blur.jpg,f,71,5,11,s,0,0.2751968000084162,None,11,5,71,2,167.28104400006123,,,,,,,,,,,,,,,,167.2764385000337,167.28104400006123,168.77691520005465,168.77691520005465,168.79242589999922,,169.06190970004536,s,0,,0.2751968000084162,None,DY20,108,2025-04-01_15h48.23.081,416_EXPERIMENT_PSYCHOPY_AU2220019_AU2220225,2024.2.4,59.56554086447175,2025-04-01 15h51.14.695349 +0530,
surprise.jpg,s,72,0,12,f,0,0.2575082001276314,None,12,0,72,1,169.07891020015813,,,,,,,,,,,,,,,,169.0730962001253,169.07891020015813,170.57733700005338,170.57733700005338,170.59415580006316,,170.84760410012677,f,0,,0.2575082001276314,None,DY20,108,2025-04-01_15h48.23.081,416_EXPERIMENT_PSYCHOPY_AU2220019_AU2220225,2024.2.4,59.56554086447175,2025-04-01 15h51.14.695349 +0530,
surprise_lower_blur.jpg,s,73,1,12,f,0,0.446694300044328,None,12,1,73,5,170.86396530014463,,,,,,,,,,,,,,,,170.85959430015646,170.86396530014463,172.36036649998277,172.36036649998277,172.37717070011422,,172.8127558999695,f,0,,0.446694300044328,None,DY20,108,2025-04-01_15h48.23.081,416_EXPERIMENT_PSYCHOPY_AU2220019_AU2220225,2024.2.4,59.56554086447175,2025-04-01 15h51.14.695349 +0530,
surprise_upper_blur.jpg,s,74,2,12,f,0,0.3460945999249816,None,12,2,74,4,172.83175110002048,,,,,,,,,,,,,,,,172.82641800004058,172.83175110002048,174.32727340003476,174.32727340003476,174.34379990003072,,174.67949490016326,f,0,,0.3460945999249816,None,DY20,108,2025-04-01_15h48.23.081,416_EXPERIMENT_PSYCHOPY_AU2220019_AU2220225,2024.2.4,59.56554086447175,2025-04-01 15h51.14.695349 +0530,
fear_lower_blur.jpg,f,75,3,12,s,0,0.31875080009922385,None,12,3,75,3,174.69545450014994,,,,,,,,,,,,,,,,174.69060149998404,174.69545450014994,176.19346300000325,176.19346300000325,176.20949010015465,,176.52910499996506,s,0,,0.31875080009922385,None,DY20,108,2025-04-01_15h48.23.081,416_EXPERIMENT_PSYCHOPY_AU2220019_AU2220225,2024.2.4,59.56554086447175,2025-04-01 15h51.14.695349 +0530,
fear.jpg,f,76,4,12,s,0,0.23682750016450882,None,12,4,76,0,176.54891959996894,,,,,,,,,,,,,,,,176.5434068001341,176.54891959996894,178.04162540007383,178.04162540007383,178.05851740017533,,178.2962417001836,s,0,,0.23682750016450882,None,DY20,108,2025-04-01_15h48.23.081,416_EXPERIMENT_PSYCHOPY_AU2220019_AU2220225,2024.2.4,59.56554086447175,2025-04-01 15h51.14.695349 +0530,
fear_upper_blur.jpg,f,77,5,12,f,1,0.3556927000172436,None,12,5,77,2,178.3145411000587,,,,,,,,,,,,,,,,178.30975500005297,178.3145411000587,179.8106845000293,179.8106845000293,179.82573950011283,,180.17925390019082,f,1,,0.3556927000172436,None,DY20,108,2025-04-01_15h48.23.081,416_EXPERIMENT_PSYCHOPY_AU2220019_AU2220225,2024.2.4,59.56554086447175,2025-04-01 15h51.14.695349 +0530,
fear.jpg,f,78,0,13,f,1,0.36200389987789094,None,13,0,78,0,180.1986038000323,,,,,,,,,,,,,,,,180.1933973999694,180.1986038000323,181.6936720001977,181.6936720001977,181.7106682001613,,182.0600903001614,f,1,,0.36200389987789094,None,DY20,108,2025-04-01_15h48.23.081,416_EXPERIMENT_PSYCHOPY_AU2220019_AU2220225,2024.2.4,59.56554086447175,2025-04-01 15h51.14.695349 +0530,
surprise_lower_blur.jpg,s,79,1,13,None,0,,,13,1,79,5,182.07907090010121,,,,,,,,,,,,,,,,182.07261220016517,182.07907090010121,183.56045910017565,183.56045910017565,183.59212120017037,184.06021400005557,184.2949153999798,None,0,184.31307100015692,,,DY20,108,2025-04-01_15h48.23.081,416_EXPERIMENT_PSYCHOPY_AU2220019_AU2220225,2024.2.4,59.56554086447175,2025-04-01 15h51.14.695349 +0530,
surprise_upper_blur.jpg,s,80,2,13,f,0,0.5208447000477463,None,13,2,80,4,184.31307100015692,,,,,,,,,,,,,,,,184.30864150007255,184.31307100015692,185.82722300011665,185.82722300011665,185.82722300011665,186.32728329999372,186.36232600011863,f,0,,0.5208447000477463,None,DY20,108,2025-04-01_15h48.23.081,416_EXPERIMENT_PSYCHOPY_AU2220019_AU2220225,2024.2.4,59.56554086447175,2025-04-01 15h51.14.695349 +0530,
surprise.jpg,s,81,3,13,s,1,0.42811139998957515,None,13,3,81,1,186.3819724000059,,,,,,,,,,,,,,,,186.37620600010268,186.3819724000059,187.87782310019247,187.87782310019247,187.89427990000695,,188.31381960003637,s,1,,0.42811139998957515,None,DY20,108,2025-04-01_15h48.23.081,416_EXPERIMENT_PSYCHOPY_AU2220019_AU2220225,2024.2.4,59.56554086447175,2025-04-01 15h51.14.695349 +0530,
fear_upper_blur.jpg,f,82,4,13,s,0,0.4984595999121666,None,13,4,82,2,188.3338439001236,,,,,,,,,,,,,,,,188.32785930018872,188.3338439001236,189.8251893001143,189.8251893001143,189.84198110015132,190.32838800013997,190.33062670007348,s,0,,0.4984595999121666,None,DY20,108,2025-04-01_15h48.23.081,416_EXPERIMENT_PSYCHOPY_AU2220019_AU2220225,2024.2.4,59.56554086447175,2025-04-01 15h51.14.695349 +0530,
fear_lower_blur.jpg,f,83,5,13,s,0,0.2697297998238355,None,13,5,83,3,190.35110240010545,,,,,,,,,,,,,,,,190.345064900117,190.35110240010545,191.8426322999876,191.8426322999876,191.86017050012015,,192.1264494000934,s,0,,0.2697297998238355,None,DY20,108,2025-04-01_15h48.23.081,416_EXPERIMENT_PSYCHOPY_AU2220019_AU2220225,2024.2.4,59.56554086447175,2025-04-01 15h51.14.695349 +0530,
surprise_upper_blur.jpg,s,84,0,14,f,0,0.5116993999108672,None,14,0,84,4,192.14389330008999,,,,,,,,,,,,,,,,192.13696550019085,192.14389330008999,193.62790740001947,193.62790740001947,193.6446814001538,194.1446710000746,194.14672030019574,f,0,,0.5116993999108672,None,DY20,108,2025-04-01_15h48.23.081,416_EXPERIMENT_PSYCHOPY_AU2220019_AU2220225,2024.2.4,59.56554086447175,2025-04-01 15h51.14.695349 +0530,
fear_lower_blur.jpg,f,85,1,14,f,1,0.44779419992119074,None,14,1,85,3,194.16377720003948,,,,,,,,,,,,,,,,194.1586288001854,194.16377720003948,195.66093410016038,195.66093410016038,195.67763489997014,,196.11291430005804,f,1,,0.44779419992119074,None,DY20,108,2025-04-01_15h48.23.081,416_EXPERIMENT_PSYCHOPY_AU2220019_AU2220225,2024.2.4,59.56554086447175,2025-04-01 15h51.14.695349 +0530,
surprise.jpg,s,86,2,14,f,0,0.3788421000353992,None,14,2,86,1,196.12931290012784,,,,,,,,,,,,,,,,196.12534860009328,196.12931290012784,197.62627880019136,197.62627880019136,197.64238089998253,,198.01188270002604,f,0,,0.3788421000353992,None,DY20,108,2025-04-01_15h48.23.081,416_EXPERIMENT_PSYCHOPY_AU2220019_AU2220225,2024.2.4,59.56554086447175,2025-04-01 15h51.14.695349 +0530,
fear_upper_blur.jpg,f,87,3,14,None,0,,,14,3,87,2,198.0315535000991,,,,,,,,,,,,,,,,198.02609220007434,198.0315535000991,199.5275487001054,199.5275487001054,199.54431020002812,200.04188819997944,200.27858510008082,None,0,,,,DY20,108,2025-04-01_15h48.23.081,416_EXPERIMENT_PSYCHOPY_AU2220019_AU2220225,2024.2.4,59.56554086447175,2025-04-01 15h51.14.695349 +0530,
fear.jpg,f,88,4,14,f,1,0.44070090004242957,None,14,4,88,0,200.29769090004265,,,,,,,,,,,,,,,,200.2933450001292,200.29769090004265,201.77548329997808,201.77548329997808,201.80873479996808,,202.2307188999839,f,1,,0.44070090004242957,None,DY20,108,2025-04-01_15h48.23.081,416_EXPERIMENT_PSYCHOPY_AU2220019_AU2220225,2024.2.4,59.56554086447175,2025-04-01 15h51.14.695349 +0530,
surprise_lower_blur.jpg,s,89,5,14,f,0,0.46459840005263686,None,14,5,89,5,202.25194940017536,,,,,,,,,,,,,,,,202.24557869997807,202.25194940017536,203.74457780015655,203.74457780015655,203.76119180000387,,204.2269276001025,f,0,,0.46459840005263686,None,DY20,108,2025-04-01_15h48.23.081,416_EXPERIMENT_PSYCHOPY_AU2220019_AU2220225,2024.2.4,59.56554086447175,2025-04-01 15h51.14.695349 +0530,
surprise_lower_blur.jpg,s,90,0,15,f,0,0.4182186000980437,None,15,0,90,5,204.2435439999681,,,,,,,,,,,,,,,,204.2384828000795,204.2435439999681,205.72702820017003,205.72702820017003,205.74442690005526,,206.14859780017287,f,0,,0.4182186000980437,None,DY20,108,2025-04-01_15h48.23.081,416_EXPERIMENT_PSYCHOPY_AU2220019_AU2220225,2024.2.4,59.56554086447175,2025-04-01 15h51.14.695349 +0530,
surprise_upper_blur.jpg,s,91,1,15,f,0,0.38447869988158345,None,15,1,91,4,206.1689866001252,,,,,,,,,,,,,,,,206.16317680012435,206.1689866001252,207.659428199986,207.659428199986,207.67676679999568,,208.04753049998544,f,0,,0.38447869988158345,None,DY20,108,2025-04-01_15h48.23.081,416_EXPERIMENT_PSYCHOPY_AU2220019_AU2220225,2024.2.4,59.56554086447175,2025-04-01 15h51.14.695349 +0530,
fear_lower_blur.jpg,f,92,2,15,s,0,0.3738067001104355,None,15,2,92,3,208.0622931001708,,,,,,,,,,,,,,,,208.05841409997083,208.0622931001708,209.55985690001398,209.55985690001398,209.57602649996988,,209.94677500007674,s,0,,0.3738067001104355,None,DY20,108,2025-04-01_15h48.23.081,416_EXPERIMENT_PSYCHOPY_AU2220019_AU2220225,2024.2.4,59.56554086447175,2025-04-01 15h51.14.695349 +0530,
fear_upper_blur.jpg,f,93,3,15,f,1,0.3322826998773962,None,15,3,93,2,209.968555000145,,,,,,,,,,,,,,,,209.96204939996824,209.968555000145,211.45965940016322,211.45965940016322,211.47562650009058,,211.79523990000598,f,1,,0.3322826998773962,None,DY20,108,2025-04-01_15h48.23.081,416_EXPERIMENT_PSYCHOPY_AU2220019_AU2220225,2024.2.4,59.56554086447175,2025-04-01 15h51.14.695349 +0530,
fear.jpg,f,94,4,15,f,1,0.5307499000336975,None,15,4,94,0,211.81032599997707,,,,,,,,,,,,,,,,211.8056228000205,211.81032599997707,213.2945801001042,213.2945801001042,213.310844700085,213.80862650019117,213.829570800066,f,1,,0.5307499000336975,None,DY20,108,2025-04-01_15h48.23.081,416_EXPERIMENT_PSYCHOPY_AU2220019_AU2220225,2024.2.4,59.56554086447175,2025-04-01 15h51.14.695349 +0530,
surprise.jpg,s,95,5,15,f,0,0.46084449999034405,None,15,5,95,1,213.84895140002482,,,,,,,,,,,,,,,,213.8427120000124,213.84895140002482,215.343511500163,215.343511500163,215.3604534000624,,215.81318990001455,f,0,,0.46084449999034405,None,DY20,108,2025-04-01_15h48.23.081,416_EXPERIMENT_PSYCHOPY_AU2220019_AU2220225,2024.2.4,59.56554086447175,2025-04-01 15h51.14.695349 +0530,
fear.jpg,f,96,0,16,s,0,0.5522359998431057,None,16,0,96,0,215.8336263000965,,,,,,,,,,,,,,,,215.82798460009508,215.8336263000965,217.32693320000544,217.32693320000544,217.34290130017325,217.82663900009356,217.893839500146,s,0,,0.5522359998431057,None,DY20,108,2025-04-01_15h48.23.081,416_EXPERIMENT_PSYCHOPY_AU2220019_AU2220225,2024.2.4,59.56554086447175,2025-04-01 15h51.14.695349 +0530,
fear_upper_blur.jpg,f,97,1,16,f,1,0.6826966998632997,None,16,1,97,2,217.9107097000815,,,,,,,,,,,,,,,,217.90433250018395,217.9107097000815,219.39381829998456,219.39381829998456,219.41066689998843,219.89184300019406,220.08025670005009,f,1,,0.6826966998632997,None,DY20,108,2025-04-01_15h48.23.081,416_EXPERIMENT_PSYCHOPY_AU2220019_AU2220225,2024.2.4,59.56554086447175,2025-04-01 15h51.14.695349 +0530,
surprise_upper_blur.jpg,s,98,2,16,s,1,0.3745282001327723,None,16,2,98,4,220.1006426999811,,,,,,,,,,,,,,,,220.0944903001655,220.1006426999811,221.59183270018548,221.59183270018548,221.60838029999286,,221.97658200003207,s,1,,0.3745282001327723,None,DY20,108,2025-04-01_15h48.23.081,416_EXPERIMENT_PSYCHOPY_AU2220019_AU2220225,2024.2.4,59.56554086447175,2025-04-01 15h51.14.695349 +0530,
fear_lower_blur.jpg,f,99,3,16,f,1,0.3675859000068158,None,16,3,99,3,221.99289740016684,,,,,,,,,,,,,,,,221.98733270005323,221.99289740016684,223.49181120004505,223.49181120004505,223.50846400018781,,223.86304440000094,f,1,,0.3675859000068158,None,DY20,108,2025-04-01_15h48.23.081,416_EXPERIMENT_PSYCHOPY_AU2220019_AU2220225,2024.2.4,59.56554086447175,2025-04-01 15h51.14.695349 +0530,
surprise.jpg,s,100,4,16,f,0,0.3971589000429958,None,16,4,100,1,223.87950580008328,,,,,,,,,,,,,,,,223.874130200129,223.87950580008328,225.3748024001252,225.3748024001252,225.39196100016125,,225.77820400008932,f,0,,0.3971589000429958,None,DY20,108,2025-04-01_15h48.23.081,416_EXPERIMENT_PSYCHOPY_AU2220019_AU2220225,2024.2.4,59.56554086447175,2025-04-01 15h51.14.695349 +0530,
surprise_lower_blur.jpg,s,101,5,16,s,1,0.5044254998210818,None,16,5,101,5,225.79458810016513,,,,,,,,,,,,,,,,225.7886688001454,225.79458810016513,227.29183310014196,227.29183310014196,227.30844870000146,227.7917202000972,227.8098010001704,s,1,,0.5044254998210818,None,DY20,108,2025-04-01_15h48.23.081,416_EXPERIMENT_PSYCHOPY_AU2220019_AU2220225,2024.2.4,59.56554086447175,2025-04-01 15h51.14.695349 +0530,
fear_upper_blur.jpg,f,102,0,17,f,1,0.32765530003234744,None,17,0,102,2,227.83043370000087,,,,,,,,,,,,,,,,227.8251303001307,227.83043370000087,229.32542620017193,229.32542620017193,229.3422427000478,,229.66174570005387,f,1,,0.32765530003234744,None,DY20,108,2025-04-01_15h48.23.081,416_EXPERIMENT_PSYCHOPY_AU2220019_AU2220225,2024.2.4,59.56554086447175,2025-04-01 15h51.14.695349 +0530,
fear.jpg,f,103,1,17,s,0,0.516427299939096,None,17,1,103,0,229.6789055999834,,,,,,,,,,,,,,,,229.67353570018895,229.6789055999834,231.17552700010128,231.17552700010128,231.1916345001664,231.67538210004568,231.69500010018237,s,0,,0.516427299939096,None,DY20,108,2025-04-01_15h48.23.081,416_EXPERIMENT_PSYCHOPY_AU2220019_AU2220225,2024.2.4,59.56554086447175,2025-04-01 15h51.14.695349 +0530,
fear_lower_blur.jpg,f,104,2,17,f,1,0.32217980013228953,None,17,2,104,3,231.71500770002604,,,,,,,,,,,,,,,,231.70904810004868,231.71500770002604,233.21005410002545,233.21005410002545,233.22745190002024,,233.54399939998984,f,1,,0.32217980013228953,None,DY20,108,2025-04-01_15h48.23.081,416_EXPERIMENT_PSYCHOPY_AU2220019_AU2220225,2024.2.4,59.56554086447175,2025-04-01 15h51.14.695349 +0530,
surprise_upper_blur.jpg,s,105,3,17,s,1,0.45598800014704466,None,17,3,105,4,233.56013160012662,,,,,,,,,,,,,,,,233.55486920010298,233.56013160012662,235.0605332001578,235.0605332001578,235.0605332001578,,235.5291171001736,s,1,,0.45598800014704466,None,DY20,108,2025-04-01_15h48.23.081,416_EXPERIMENT_PSYCHOPY_AU2220019_AU2220225,2024.2.4,59.56554086447175,2025-04-01 15h51.14.695349 +0530,
surprise_lower_blur.jpg,s,106,4,17,f,0,0.3532110000960529,None,17,4,106,5,235.54835070017725,,,,,,,,,,,,,,,,235.54286240017973,235.54835070017725,237.04368770006113,237.04368770006113,237.06065460015088,,237.41313580004498,f,0,,0.3532110000960529,None,DY20,108,2025-04-01_15h48.23.081,416_EXPERIMENT_PSYCHOPY_AU2220019_AU2220225,2024.2.4,59.56554086447175,2025-04-01 15h51.14.695349 +0530,
surprise.jpg,s,107,5,17,s,1,0.6544033999089152,None,17,5,107,1,237.4326683001127,,,,,,,,,,,,,,,,237.42810919997282,237.4326683001127,238.9275454999879,238.9275454999879,238.94366770004854,239.42745380010456,239.59340790007263,s,1,,0.6544033999089152,None,DY20,108,2025-04-01_15h48.23.081,416_EXPERIMENT_PSYCHOPY_AU2220019_AU2220225,2024.2.4,59.56554086447175,2025-04-01 15h51.14.695349 +0530,
surprise_upper_blur.jpg,s,108,0,18,f,0,0.44450420001521707,None,18,0,108,4,239.61025380017236,,,,,,,,,,,,,,,,239.60304600000381,239.61025380017236,241.09410129999742,241.09410129999742,241.11077360017225,,241.54568760003895,f,0,,0.44450420001521707,None,DY20,108,2025-04-01_15h48.23.081,416_EXPERIMENT_PSYCHOPY_AU2220019_AU2220225,2024.2.4,59.56554086447175,2025-04-01 15h51.14.695349 +0530,
fear_upper_blur.jpg,f,109,1,18,f,1,0.709719399921596,None,18,1,109,2,241.5652081000153,,,,,,,,,,,,,,,,241.55986190005206,241.5652081000153,243.0601526000537,243.0601526000537,243.07730010012165,243.57472340017557,243.7775846000295,f,1,,0.709719399921596,None,DY20,108,2025-04-01_15h48.23.081,416_EXPERIMENT_PSYCHOPY_AU2220019_AU2220225,2024.2.4,59.56554086447175,2025-04-01 15h51.14.695349 +0530,
surprise.jpg,s,110,2,18,f,0,0.5178861001040787,None,18,2,110,1,243.79445559997112,,,,,,,,,,,,,,,,243.78913690010086,243.79445559997112,245.29298730008304,245.29298730008304,245.30809820001014,245.79201970016584,245.8298665001057,f,0,,0.5178861001040787,None,DY20,108,2025-04-01_15h48.23.081,416_EXPERIMENT_PSYCHOPY_AU2220019_AU2220225,2024.2.4,59.56554086447175,2025-04-01 15h51.14.695349 +0530,
fear.jpg,f,111,3,18,s,0,0.30647190008312464,None,18,3,111,0,245.8510917001404,,,,,,,,,,,,,,,,245.8452106001787,245.8510917001404,247.34373940015212,247.34373940015212,247.36017660005018,,247.6627931999974,s,0,,0.30647190008312464,None,DY20,108,2025-04-01_15h48.23.081,416_EXPERIMENT_PSYCHOPY_AU2220019_AU2220225,2024.2.4,59.56554086447175,2025-04-01 15h51.14.695349 +0530,
fear_lower_blur.jpg,f,112,4,18,f,1,0.5104082999750972,None,18,4,112,3,247.68019940005615,,,,,,,,,,,,,,,,247.67529300018214,247.68019940005615,249.1755451001227,249.1755451001227,249.19191420008428,249.67503440007567,249.69276500004344,f,1,,0.5104082999750972,None,DY20,108,2025-04-01_15h48.23.081,416_EXPERIMENT_PSYCHOPY_AU2220019_AU2220225,2024.2.4,59.56554086447175,2025-04-01 15h51.14.695349 +0530,
surprise_lower_blur.jpg,s,113,5,18,s,1,0.4556925999931991,None,18,5,113,5,249.71163640008308,,,,,,,,,,,,,,,,249.70589040010236,249.71163640008308,251.19376310007647,251.19376310007647,251.2272101000417,,251.66050560004078,s,1,,0.4556925999931991,None,DY20,108,2025-04-01_15h48.23.081,416_EXPERIMENT_PSYCHOPY_AU2220019_AU2220225,2024.2.4,59.56554086447175,2025-04-01 15h51.14.695349 +0530,
fear_lower_blur.jpg,f,114,0,19,f,1,0.3469024000223726,None,19,0,114,3,251.68062160001136,,,,,,,,,,,,,,,,251.67519149999134,251.68062160001136,253.16025580000132,253.16025580000132,253.19381650001742,,253.51090910006315,f,1,,0.3469024000223726,None,DY20,108,2025-04-01_15h48.23.081,416_EXPERIMENT_PSYCHOPY_AU2220019_AU2220225,2024.2.4,59.56554086447175,2025-04-01 15h51.14.695349 +0530,
surprise_upper_blur.jpg,s,115,1,19,f,0,0.3632006000261754,None,19,1,115,4,253.52735790004954,,,,,,,,,,,,,,,,253.52212490001693,253.52735790004954,255.02706840005703,255.02706840005703,255.04359350004233,,255.3954580000136,f,0,,0.3632006000261754,None,DY20,108,2025-04-01_15h48.23.081,416_EXPERIMENT_PSYCHOPY_AU2220019_AU2220225,2024.2.4,59.56554086447175,2025-04-01 15h51.14.695349 +0530,
fear.jpg,f,116,2,19,f,1,0.49627040000632405,None,19,2,116,0,255.4153836001642,,,,,,,,,,,,,,,,255.40992320002988,255.4153836001642,256.910266000079,256.910266000079,256.92774299997836,257.43153830012307,257.4106627001893,f,1,,0.49627040000632405,None,DY20,108,2025-04-01_15h48.23.081,416_EXPERIMENT_PSYCHOPY_AU2220019_AU2220225,2024.2.4,59.56554086447175,2025-04-01 15h51.14.695349 +0530,
fear_upper_blur.jpg,f,117,3,19,f,1,0.6742213999386877,None,19,3,117,2,257.43153830012307,,,,,,,,,,,,,,,,257.42630940000527,257.43153830012307,258.91018960019574,258.91018960019574,258.9419913000893,259.4101941001136,259.5960788000375,f,1,,0.6742213999386877,None,DY20,108,2025-04-01_15h48.23.081,416_EXPERIMENT_PSYCHOPY_AU2220019_AU2220225,2024.2.4,59.56554086447175,2025-04-01 15h51.14.695349 +0530,
surprise_lower_blur.jpg,s,118,4,19,s,1,0.6820321001578122,None,19,4,118,5,259.616299000103,,,,,,,,,,,,,,,,259.6099893001374,259.616299000103,261.1090685001109,261.1090685001109,261.12644869997166,261.6097924001515,261.79600450000726,s,1,,0.6820321001578122,None,DY20,108,2025-04-01_15h48.23.081,416_EXPERIMENT_PSYCHOPY_AU2220019_AU2220225,2024.2.4,59.56554086447175,2025-04-01 15h51.14.695349 +0530,
surprise.jpg,s,119,5,19,f,0,0.3636799000669271,None,19,5,119,1,261.8172085999977,,,,,,,,,,,,,,,,261.81198040000163,261.8172085999977,263.30886320001446,263.30886320001446,263.3277549999766,,263.68019500002265,f,0,,0.3636799000669271,None,DY20,108,2025-04-01_15h48.23.081,416_EXPERIMENT_PSYCHOPY_AU2220019_AU2220225,2024.2.4,59.56554086447175,2025-04-01 15h51.14.695349 +0530,
