stimulus_image,correct_response,loop.thisRepN,loop.thisTrialN,loop.thisN,loop.thisIndex,thisRow.t,notes,guide.started,instructions.started,ins_resp.started,guide.stopped,ins_resp.keys,ins_resp.rt,ins_resp.duration,guide_2.started,ins_resp_2.started,instructions_2.started,guide_2.stopped,ins_resp_2.keys,ins_resp_2.rt,ins_resp_2.duration,trial.started,fixation.started,image.started,key_resp.started,fixation.stopped,trial.stopped,key_resp.keys,key_resp.corr,key_resp.rt,key_resp.duration,image.stopped,key_resp.stopped,participant,session,date,expName,psychopyVersion,frameRate,expStart,
,,,,,,,,0.0027709000278264284,0.016316000022925436,0.016316000022925436,7.553923100000247,space,7.5227473000995815,None,,,,,,,,,,,,,,,,,,,,H19,001,2025-03-29_19h24.01.149,416_EXPERIMENT_PSYCHOPY_AU2220019_AU2220225,2024.1.5,None,2025-03-29 19h32.13.516150 +0530,
,,,,,,,,,,,,,,,7.5539942000759766,7.575708799995482,7.575708799995482,13.157224800088443,space,5.567131199990399,None,,,,,,,,,,,,,H19,001,2025-03-29_19h24.01.149,416_EXPERIMENT_PSYCHOPY_AU2220019_AU2220225,2024.1.5,None,2025-03-29 19h32.13.516150 +0530,
fear.jpg,f,0,0,0,0,13.188499200041406,,,,,,,,,,,,,,,,13.17482790001668,13.188499200041406,14.711318999994546,14.711318999994546,14.718689500004984,15.420188200077973,None,0,,,,,H19,001,2025-03-29_19h24.01.149,416_EXPERIMENT_PSYCHOPY_AU2220019_AU2220225,2024.1.5,None,2025-03-29 19h32.13.516150 +0530,
fear_upper_blur.jpg,f,0,1,1,2,15.443720999988727,,,,,,,,,,,,,,,,15.422254199977033,15.443720999988727,16.918109100079164,16.918109100079164,16.951505700009875,17.42024460004177,f,1,0.4922175999963656,None,,,H19,001,2025-03-29_19h24.01.149,416_EXPERIMENT_PSYCHOPY_AU2220019_AU2220225,2024.1.5,None,2025-03-29 19h32.13.516150 +0530,
surprise.jpg,s,0,2,2,1,17.44452999997884,,,,,,,,,,,,,,,,17.42229070002213,17.44452999997884,18.93299530004151,18.93299530004151,18.949794800020754,19.41806350008119,s,1,0.46836529998108745,None,,,H19,001,2025-03-29_19h24.01.149,416_EXPERIMENT_PSYCHOPY_AU2220019_AU2220225,2024.1.5,None,2025-03-29 19h32.13.516150 +0530,
surprise_upper_blur.jpg,s,0,3,3,4,19.441885099979118,,,,,,,,,,,,,,,,19.41973060008604,19.441885099979118,20.931137899984606,20.931137899984606,20.94753920007497,21.299657700001262,f,0,0.3624783999985084,None,,,H19,001,2025-03-29_19h24.01.149,416_EXPERIMENT_PSYCHOPY_AU2220019_AU2220225,2024.1.5,None,2025-03-29 19h32.13.516150 +0530,
fear_lower_blur.jpg,f,0,4,4,3,21.323486100067385,,,,,,,,,,,,,,,,21.30128330003936,21.323486100067385,22.81273320002947,22.81273320002947,22.829055099980906,23.181471400079317,f,1,0.36672900000121444,None,,,H19,001,2025-03-29_19h24.01.149,416_EXPERIMENT_PSYCHOPY_AU2220019_AU2220225,2024.1.5,None,2025-03-29 19h32.13.516150 +0530,
surprise_lower_blur.jpg,s,0,5,5,5,23.203334900084883,,,,,,,,,,,,,,,,23.183232399984263,23.203334900084883,24.692810100037605,24.692810100037605,24.70871670008637,25.228795600007288,s,1,0.5211841000709683,None,,,H19,001,2025-03-29_19h24.01.149,416_EXPERIMENT_PSYCHOPY_AU2220019_AU2220225,2024.1.5,None,2025-03-29 19h32.13.516150 +0530,
surprise_lower_blur.jpg,s,1,0,6,5,25.25066949997563,,,,,,,,,,,,,,,,25.230657599982806,25.25066949997563,26.742291099973954,26.742291099973954,26.758752400055528,27.110291599994525,f,0,0.35746410000137985,None,,,H19,001,2025-03-29_19h24.01.149,416_EXPERIMENT_PSYCHOPY_AU2220019_AU2220225,2024.1.5,None,2025-03-29 19h32.13.516150 +0530,
fear_upper_blur.jpg,f,1,1,7,2,27.133858200046234,,,,,,,,,,,,,,,,27.111943800002337,27.133858200046234,28.62363060005009,28.62363060005009,28.640117199975066,29.0252499000635,f,1,0.3960434999316931,None,,,H19,001,2025-03-29_19h24.01.149,416_EXPERIMENT_PSYCHOPY_AU2220019_AU2220225,2024.1.5,None,2025-03-29 19h32.13.516150 +0530,
fear.jpg,f,1,2,8,0,29.048253700020723,,,,,,,,,,,,,,,,29.027023400063626,29.048253700020723,30.538189999992028,30.538189999992028,30.554925900069065,31.089855700032786,f,1,0.5394959000404924,None,,,H19,001,2025-03-29_19h24.01.149,416_EXPERIMENT_PSYCHOPY_AU2220019_AU2220225,2024.1.5,None,2025-03-29 19h32.13.516150 +0530,
surprise_upper_blur.jpg,s,1,3,9,4,31.113638499984518,,,,,,,,,,,,,,,,31.091469199978746,31.113638499984518,32.602779300068505,32.602779300068505,32.619634600006975,33.02142250002362,s,1,0.4093373999930918,None,,,H19,001,2025-03-29_19h24.01.149,416_EXPERIMENT_PSYCHOPY_AU2220019_AU2220225,2024.1.5,None,2025-03-29 19h32.13.516150 +0530,
fear_lower_blur.jpg,f,1,4,10,3,33.04298310005106,,,,,,,,,,,,,,,,33.023200100054964,33.04298310005106,34.534118200070225,34.534118200070225,34.55119999998715,34.91950830002315,f,1,0.36757060000672936,None,,,H19,001,2025-03-29_19h24.01.149,416_EXPERIMENT_PSYCHOPY_AU2220019_AU2220225,2024.1.5,None,2025-03-29 19h32.13.516150 +0530,
surprise.jpg,s,1,5,11,1,34.941580099985,,,,,,,,,,,,,,,,34.921070100041106,34.941580099985,36.43261949997395,36.43261949997395,36.44894480006769,36.85134180006571,s,1,0.4100620000390336,None,,,H19,001,2025-03-29_19h24.01.149,416_EXPERIMENT_PSYCHOPY_AU2220019_AU2220225,2024.1.5,None,2025-03-29 19h32.13.516150 +0530,
fear.jpg,f,2,0,12,0,36.87420860002749,,,,,,,,,,,,,,,,36.85316140006762,36.87420860002749,38.36403509997763,38.36403509997763,38.38076239998918,38.84888619999401,f,1,0.4815291000995785,None,,,H19,001,2025-03-29_19h24.01.149,416_EXPERIMENT_PSYCHOPY_AU2220019_AU2220225,2024.1.5,None,2025-03-29 19h32.13.516150 +0530,
fear_upper_blur.jpg,f,2,1,13,2,38.87265640008263,,,,,,,,,,,,,,,,38.85054920008406,38.87265640008263,40.36207590007689,40.36207590007689,40.3784949000692,40.896570899989456,f,1,0.5176991000771523,None,,,H19,001,2025-03-29_19h24.01.149,416_EXPERIMENT_PSYCHOPY_AU2220019_AU2220225,2024.1.5,None,2025-03-29 19h32.13.516150 +0530,
surprise_lower_blur.jpg,s,2,2,14,5,40.91655389999505,,,,,,,,,,,,,,,,40.898200800060295,40.91655389999505,42.410035800072365,42.410035800072365,42.42668420006521,42.89475430001039,s,1,0.47113740001805127,None,,,H19,001,2025-03-29_19h24.01.149,416_EXPERIMENT_PSYCHOPY_AU2220019_AU2220225,2024.1.5,None,2025-03-29 19h32.13.516150 +0530,
surprise_upper_blur.jpg,s,2,3,15,4,42.91776880004909,,,,,,,,,,,,,,,,42.89645500003826,42.91776880004909,44.40800940000918,44.40800940000918,44.424780900008045,44.97664840007201,s,1,0.5524387999903411,None,,,H19,001,2025-03-29_19h24.01.149,416_EXPERIMENT_PSYCHOPY_AU2220019_AU2220225,2024.1.5,None,2025-03-29 19h32.13.516150 +0530,
fear_lower_blur.jpg,f,2,4,16,3,45.00074280006811,,,,,,,,,,,,,,,,44.97857729997486,45.00074280006811,46.4894916000776,46.4894916000776,46.50636460003443,46.95875830005389,f,1,0.46675030002370477,None,,,H19,001,2025-03-29_19h24.01.149,416_EXPERIMENT_PSYCHOPY_AU2220019_AU2220225,2024.1.5,None,2025-03-29 19h32.13.516150 +0530,
surprise.jpg,s,2,5,17,1,46.98459460004233,,,,,,,,,,,,,,,,46.96044380008243,46.98459460004233,48.47065520007163,48.47065520007163,48.488891100045294,49.12242640007753,s,1,0.6489975999575108,None,,,H19,001,2025-03-29_19h24.01.149,416_EXPERIMENT_PSYCHOPY_AU2220019_AU2220225,2024.1.5,None,2025-03-29 19h32.13.516150 +0530,
fear_lower_blur.jpg,f,3,0,18,3,49.14593940007035,,,,,,,,,,,,,,,,49.12405870005023,49.14593940007035,50.6349884000374,50.6349884000374,50.65173100004904,51.1036833000835,f,1,0.45725059998221695,None,,,H19,001,2025-03-29_19h24.01.149,416_EXPERIMENT_PSYCHOPY_AU2220019_AU2220225,2024.1.5,None,2025-03-29 19h32.13.516150 +0530,
surprise_lower_blur.jpg,s,3,1,19,5,51.12864490004722,,,,,,,,,,,,,,,,51.10538510000333,51.12864490004722,52.61688019998837,52.61688019998837,52.63333780004177,53.265969500062056,s,1,0.6438621999695897,None,,,H19,001,2025-03-29_19h24.01.149,416_EXPERIMENT_PSYCHOPY_AU2220019_AU2220225,2024.1.5,None,2025-03-29 19h32.13.516150 +0530,
surprise.jpg,s,3,2,20,1,53.281162500032224,,,,,,,,,,,,,,,,53.26675680000335,53.281162500032224,54.78119560005143,54.78119560005143,54.78119560005143,55.366736600059085,s,1,0.5786732999840751,None,,,H19,001,2025-03-29_19h24.01.149,416_EXPERIMENT_PSYCHOPY_AU2220019_AU2220225,2024.1.5,None,2025-03-29 19h32.13.516150 +0530,
surprise_upper_blur.jpg,s,3,3,21,4,55.39200280001387,,,,,,,,,,,,,,,,55.368535200017504,55.39200280001387,56.879244700074196,56.879244700074196,56.8955293999752,57.513860600069165,s,1,0.6237551999511197,None,,,H19,001,2025-03-29_19h24.01.149,416_EXPERIMENT_PSYCHOPY_AU2220019_AU2220225,2024.1.5,None,2025-03-29 19h32.13.516150 +0530,
fear.jpg,f,3,4,22,0,57.53930489998311,,,,,,,,,,,,,,,,57.515512800076976,57.53930489998311,59.02702040004078,59.02702040004078,59.04349670000374,59.64643620001152,f,1,0.6043473000172526,None,,,H19,001,2025-03-29_19h24.01.149,416_EXPERIMENT_PSYCHOPY_AU2220019_AU2220225,2024.1.5,None,2025-03-29 19h32.13.516150 +0530,
fear_upper_blur.jpg,f,3,5,23,2,59.667257499997504,,,,,,,,,,,,,,,,59.64818360004574,59.667257499997504,61.15867580007762,61.15867580007762,61.17509080003947,61.89252570003737,None,0,,,61.91636949998792,61.91636949998792,H19,001,2025-03-29_19h24.01.149,416_EXPERIMENT_PSYCHOPY_AU2220019_AU2220225,2024.1.5,None,2025-03-29 19h32.13.516150 +0530,
surprise.jpg,s,4,0,24,1,61.91636949998792,,,,,,,,,,,,,,,,61.89375160005875,61.91636949998792,63.40632820001338,63.40632820001338,63.422797700040974,63.99097400007304,s,1,0.578588500036858,None,,,H19,001,2025-03-29_19h24.01.149,416_EXPERIMENT_PSYCHOPY_AU2220019_AU2220225,2024.1.5,None,2025-03-29 19h32.13.516150 +0530,
fear_upper_blur.jpg,f,4,1,25,2,64.01303070003632,,,,,,,,,,,,,,,,63.99287100008223,64.01303070003632,65.50423750001937,65.50423750001937,65.52061780006625,66.02264109998941,f,1,0.507974199950695,None,,,H19,001,2025-03-29_19h24.01.149,416_EXPERIMENT_PSYCHOPY_AU2220019_AU2220225,2024.1.5,None,2025-03-29 19h32.13.516150 +0530,
fear_lower_blur.jpg,f,4,2,26,3,66.04453449998982,,,,,,,,,,,,,,,,66.02441980002914,66.04453449998982,67.53528680000454,67.53528680000454,67.55181289999746,68.20324030006304,f,1,0.6603975999169052,None,,,H19,001,2025-03-29_19h24.01.149,416_EXPERIMENT_PSYCHOPY_AU2220019_AU2220225,2024.1.5,None,2025-03-29 19h32.13.516150 +0530,
fear.jpg,f,4,3,27,0,68.2296279000584,,,,,,,,,,,,,,,,68.20487780007534,68.2296279000584,69.71701590006705,69.71701590006705,69.73287659999914,70.20230500004254,f,1,0.4780681999400258,None,,,H19,001,2025-03-29_19h24.01.149,416_EXPERIMENT_PSYCHOPY_AU2220019_AU2220225,2024.1.5,None,2025-03-29 19h32.13.516150 +0530,
surprise_lower_blur.jpg,s,4,4,28,5,70.226085399976,,,,,,,,,,,,,,,,70.20394040003885,70.226085399976,71.71444660006091,71.71444660006091,71.73125150008127,72.20044030004647,s,1,0.46747229993343353,None,,,H19,001,2025-03-29_19h24.01.149,416_EXPERIMENT_PSYCHOPY_AU2220019_AU2220225,2024.1.5,None,2025-03-29 19h32.13.516150 +0530,
surprise_upper_blur.jpg,s,4,5,29,4,72.22196480003186,,,,,,,,,,,,,,,,72.20219580002595,72.22196480003186,73.71283009997569,73.71283009997569,73.7292230000021,74.18093959998805,f,0,0.4523194000357762,None,,,H19,001,2025-03-29_19h24.01.149,416_EXPERIMENT_PSYCHOPY_AU2220019_AU2220225,2024.1.5,None,2025-03-29 19h32.13.516150 +0530,
fear.jpg,f,5,0,30,0,74.20369170000777,,,,,,,,,,,,,,,,74.18262360000517,74.20369170000777,75.69392960006371,75.69392960006371,75.710536000086,75.99629719997756,f,1,0.295237599988468,None,,,H19,001,2025-03-29_19h24.01.149,416_EXPERIMENT_PSYCHOPY_AU2220019_AU2220225,2024.1.5,None,2025-03-29 19h32.13.516150 +0530,
fear_lower_blur.jpg,f,5,1,31,3,76.01783000002615,,,,,,,,,,,,,,,,75.99810189998243,76.01783000002615,77.5089649000438,77.5089649000438,77.5255860000616,77.96020890004002,f,1,0.4378073000116274,None,,,H19,001,2025-03-29_19h24.01.149,416_EXPERIMENT_PSYCHOPY_AU2220019_AU2220225,2024.1.5,None,2025-03-29 19h32.13.516150 +0530,
surprise.jpg,s,5,2,32,1,77.98190810007509,,,,,,,,,,,,,,,,77.96191630000249,77.98190810007509,79.47356060007587,79.47356060007587,79.49003650003579,79.99285280006006,f,0,0.5159950000233948,None,,,H19,001,2025-03-29_19h24.01.149,416_EXPERIMENT_PSYCHOPY_AU2220019_AU2220225,2024.1.5,None,2025-03-29 19h32.13.516150 +0530,
surprise_lower_blur.jpg,s,5,3,33,5,80.01603589998558,,,,,,,,,,,,,,,,79.99474330001976,80.01603589998558,81.5051003000699,81.5051003000699,81.52177540003322,82.05673750001006,s,1,0.5393233000067994,None,,,H19,001,2025-03-29_19h24.01.149,416_EXPERIMENT_PSYCHOPY_AU2220019_AU2220225,2024.1.5,None,2025-03-29 19h32.13.516150 +0530,
fear_upper_blur.jpg,f,5,4,34,2,82.08060760004446,,,,,,,,,,,,,,,,82.0584067000309,82.08060760004446,83.57027280004695,83.57027280004695,83.58603810006753,84.12139710003976,f,1,0.541793999960646,None,,,H19,001,2025-03-29_19h24.01.149,416_EXPERIMENT_PSYCHOPY_AU2220019_AU2220225,2024.1.5,None,2025-03-29 19h32.13.516150 +0530,
surprise_upper_blur.jpg,s,5,5,35,4,84.14647859998513,,,,,,,,,,,,,,,,84.12317260005511,84.14647859998513,85.63410680007655,85.63410680007655,85.65106280008331,86.28354580001906,s,1,0.645919100032188,None,,,H19,001,2025-03-29_19h24.01.149,416_EXPERIMENT_PSYCHOPY_AU2220019_AU2220225,2024.1.5,None,2025-03-29 19h32.13.516150 +0530,
surprise_lower_blur.jpg,s,6,0,36,5,86.29893769999035,,,,,,,,,,,,,,,,86.28411480004434,86.29893769999035,87.78222140006255,87.78222140006255,87.79894740006421,88.35066560003906,s,1,0.5559720000019297,None,,,H19,001,2025-03-29_19h24.01.149,416_EXPERIMENT_PSYCHOPY_AU2220019_AU2220225,2024.1.5,None,2025-03-29 19h32.13.516150 +0530,
fear_upper_blur.jpg,f,6,1,37,2,88.36920309998095,,,,,,,,,,,,,,,,88.35255200008396,88.36920309998095,89.86343350005336,89.86343350005336,89.8799201999791,90.24895160004962,f,1,0.3814853999065235,None,,,H19,001,2025-03-29_19h24.01.149,416_EXPERIMENT_PSYCHOPY_AU2220019_AU2220225,2024.1.5,None,2025-03-29 19h32.13.516150 +0530,
surprise.jpg,s,6,2,38,1,90.27346070006024,,,,,,,,,,,,,,,,90.25055400002748,90.27346070006024,91.76122560002841,91.76122560002841,91.77807450003456,92.2131839999929,s,1,0.44241140002850443,None,,,H19,001,2025-03-29_19h24.01.149,416_EXPERIMENT_PSYCHOPY_AU2220019_AU2220225,2024.1.5,None,2025-03-29 19h32.13.516150 +0530,
surprise_upper_blur.jpg,s,6,3,39,4,92.23754040000495,,,,,,,,,,,,,,,,92.21494770003483,92.23754040000495,93.72656300000381,93.72656300000381,93.74378370004706,94.46039150003344,None,0,,,94.48465840006247,94.48465840006247,H19,001,2025-03-29_19h24.01.149,416_EXPERIMENT_PSYCHOPY_AU2220019_AU2220225,2024.1.5,None,2025-03-29 19h32.13.516150 +0530,
fear.jpg,f,6,4,40,0,94.48465840006247,,,,,,,,,,,,,,,,94.46157709998079,94.48465840006247,95.97439860005397,95.97439860005397,95.99059380008839,96.70882739999797,None,0,,,96.73303680005483,96.73303680005483,H19,001,2025-03-29_19h24.01.149,416_EXPERIMENT_PSYCHOPY_AU2220019_AU2220225,2024.1.5,None,2025-03-29 19h32.13.516150 +0530,
fear_lower_blur.jpg,f,6,5,41,3,96.73303680005483,,,,,,,,,,,,,,,,96.71026409999467,96.73303680005483,98.2222278000554,98.2222278000554,98.23933000001125,98.75699440005701,f,1,0.5281161000020802,None,,,H19,001,2025-03-29_19h24.01.149,416_EXPERIMENT_PSYCHOPY_AU2220019_AU2220225,2024.1.5,None,2025-03-29 19h32.13.516150 +0530,
surprise_lower_blur.jpg,s,7,0,42,5,98.77886050008237,,,,,,,,,,,,,,,,98.75863890000619,98.77886050008237,100.26970070006792,100.26970070006792,100.28643330000341,100.67227670003194,s,1,0.3911946000298485,None,,,H19,001,2025-03-29_19h24.01.149,416_EXPERIMENT_PSYCHOPY_AU2220019_AU2220225,2024.1.5,None,2025-03-29 19h32.13.516150 +0530,
fear.jpg,f,7,1,43,0,100.6922827999806,,,,,,,,,,,,,,,,100.6739522999851,100.6922827999806,102.18482810002752,102.18482810002752,102.20128610008396,102.65315979998559,f,1,0.4590250999899581,None,,,H19,001,2025-03-29_19h24.01.149,416_EXPERIMENT_PSYCHOPY_AU2220019_AU2220225,2024.1.5,None,2025-03-29 19h32.13.516150 +0530,
fear_upper_blur.jpg,f,7,2,44,2,102.67480520007666,,,,,,,,,,,,,,,,102.65489850006998,102.67480520007666,104.16613859997597,104.16613859997597,104.18279620003887,104.75087800004985,f,1,0.5713858000235632,None,,,H19,001,2025-03-29_19h24.01.149,416_EXPERIMENT_PSYCHOPY_AU2220019_AU2220225,2024.1.5,None,2025-03-29 19h32.13.516150 +0530,
surprise.jpg,s,7,3,45,1,104.77736389997881,,,,,,,,,,,,,,,,104.7526799000334,104.77736389997881,106.26438100007363,106.26438100007363,106.28038410004228,106.73247020004783,s,1,0.45094699994660914,None,,,H19,001,2025-03-29_19h24.01.149,416_EXPERIMENT_PSYCHOPY_AU2220019_AU2220225,2024.1.5,None,2025-03-29 19h32.13.516150 +0530,
fear_lower_blur.jpg,f,7,4,46,3,106.75264770002104,,,,,,,,,,,,,,,,106.73420120007358,106.75264770002104,108.24545839999337,108.24545839999337,108.2621691999957,108.697532900027,f,1,0.4476275999331847,None,,,H19,001,2025-03-29_19h24.01.149,416_EXPERIMENT_PSYCHOPY_AU2220019_AU2220225,2024.1.5,None,2025-03-29 19h32.13.516150 +0530,
surprise_upper_blur.jpg,s,7,5,47,4,108.71969030005857,,,,,,,,,,,,,,,,108.69927510002162,108.71969030005857,110.20865430007689,110.20865430007689,110.22544140007813,110.61223410000093,f,0,0.40056610002648085,None,,,H19,001,2025-03-29_19h24.01.149,416_EXPERIMENT_PSYCHOPY_AU2220019_AU2220225,2024.1.5,None,2025-03-29 19h32.13.516150 +0530,
surprise_lower_blur.jpg,s,8,0,48,5,110.63396530004684,,,,,,,,,,,,,,,,110.61402390000876,110.63396530004684,112.12551250006072,112.12551250006072,112.14151940005831,112.81053650006652,s,1,0.6728771000634879,None,,,H19,001,2025-03-29_19h24.01.149,416_EXPERIMENT_PSYCHOPY_AU2220019_AU2220225,2024.1.5,None,2025-03-29 19h32.13.516150 +0530,
fear_upper_blur.jpg,f,8,1,49,2,112.83332610002253,,,,,,,,,,,,,,,,112.81227150000632,112.83332610002253,114.32325260003563,114.32325260003563,114.34053859999403,114.79129189997911,f,1,0.46284900000318885,None,,,H19,001,2025-03-29_19h24.01.149,416_EXPERIMENT_PSYCHOPY_AU2220019_AU2220225,2024.1.5,None,2025-03-29 19h32.13.516150 +0530,
fear_lower_blur.jpg,f,8,2,50,3,114.8113003000617,,,,,,,,,,,,,,,,114.79304959997535,114.8113003000617,116.30242229998112,116.30242229998112,116.31979950005189,116.82019060000312,f,1,0.5083322999998927,None,,,H19,001,2025-03-29_19h24.01.149,416_EXPERIMENT_PSYCHOPY_AU2220019_AU2220225,2024.1.5,None,2025-03-29 19h32.13.516150 +0530,
surprise.jpg,s,8,3,51,1,116.83638350002002,,,,,,,,,,,,,,,,116.82134340004995,116.83638350002002,118.33475709997583,118.33475709997583,118.3508500000462,118.86878720007371,s,1,0.5226057000691071,None,,,H19,001,2025-03-29_19h24.01.149,416_EXPERIMENT_PSYCHOPY_AU2220019_AU2220225,2024.1.5,None,2025-03-29 19h32.13.516150 +0530,
fear.jpg,f,8,4,52,0,118.8842394000385,,,,,,,,,,,,,,,,118.86986139998771,118.8842394000385,120.38239180005621,120.38239180005621,120.39932419999968,120.74987310008146,f,1,0.35106480005197227,None,,,H19,001,2025-03-29_19h24.01.149,416_EXPERIMENT_PSYCHOPY_AU2220019_AU2220225,2024.1.5,None,2025-03-29 19h32.13.516150 +0530,
surprise_upper_blur.jpg,s,8,5,53,4,120.765689700027,,,,,,,,,,,,,,,,120.75087170000188,120.765689700027,122.26506580004934,122.26506580004934,122.26506580004934,122.66686210001353,s,1,0.3871505999704823,None,,,H19,001,2025-03-29_19h24.01.149,416_EXPERIMENT_PSYCHOPY_AU2220019_AU2220225,2024.1.5,None,2025-03-29 19h32.13.516150 +0530,
surprise_upper_blur.jpg,s,9,0,54,4,122.69165489997249,,,,,,,,,,,,,,,,122.66844989999663,122.69165489997249,124.17954070004635,124.17954070004635,124.19614110002294,124.69811830006074,s,1,0.5153391000349075,None,,,H19,001,2025-03-29_19h24.01.149,416_EXPERIMENT_PSYCHOPY_AU2220019_AU2220225,2024.1.5,None,2025-03-29 19h32.13.516150 +0530,
fear.jpg,f,9,1,55,0,124.71965500002261,,,,,,,,,,,,,,,,124.69988670002203,124.71965500002261,126.21055610000622,126.21055610000622,126.22843800007831,126.74627050000709,f,1,0.5267734000226483,None,,,H19,001,2025-03-29_19h24.01.149,416_EXPERIMENT_PSYCHOPY_AU2220019_AU2220225,2024.1.5,None,2025-03-29 19h32.13.516150 +0530,
fear_lower_blur.jpg,f,9,2,56,3,126.76734640006907,,,,,,,,,,,,,,,,126.74802140006796,126.76734640006907,128.2592155999737,128.2592155999737,128.27650350006297,128.79460969998036,f,1,0.5256888000294566,None,,,H19,001,2025-03-29_19h24.01.149,416_EXPERIMENT_PSYCHOPY_AU2220019_AU2220225,2024.1.5,None,2025-03-29 19h32.13.516150 +0530,
surprise.jpg,s,9,3,57,1,128.81896940001752,,,,,,,,,,,,,,,,128.7963459000457,128.81896940001752,130.30553060001694,130.30553060001694,130.3228382000234,131.04100600001402,None,0,,,131.06152139999904,131.06152139999904,H19,001,2025-03-29_19h24.01.149,416_EXPERIMENT_PSYCHOPY_AU2220019_AU2220225,2024.1.5,None,2025-03-29 19h32.13.516150 +0530,
surprise_lower_blur.jpg,s,9,4,58,5,131.06152139999904,,,,,,,,,,,,,,,,131.04229100001976,131.06152139999904,132.5550148000475,132.5550148000475,132.57173560000956,133.09001719998196,s,1,0.5287554999813437,None,,,H19,001,2025-03-29_19h24.01.149,416_EXPERIMENT_PSYCHOPY_AU2220019_AU2220225,2024.1.5,None,2025-03-29 19h32.13.516150 +0530,
fear_upper_blur.jpg,f,9,5,59,2,133.11150710005313,,,,,,,,,,,,,,,,133.0917992000468,133.11150710005313,134.6027065999806,134.6027065999806,134.61993689998053,135.32137740007602,f,1,0.7147629999089986,None,,,H19,001,2025-03-29_19h24.01.149,416_EXPERIMENT_PSYCHOPY_AU2220019_AU2220225,2024.1.5,None,2025-03-29 19h32.13.516150 +0530,
fear_upper_blur.jpg,f,10,0,60,2,135.34362340008374,,,,,,,,,,,,,,,,135.3229469000362,135.34362340008374,136.8341473999899,136.8341473999899,136.8503971999744,137.4018496000208,f,1,0.553745900047943,None,,,H19,001,2025-03-29_19h24.01.149,416_EXPERIMENT_PSYCHOPY_AU2220019_AU2220225,2024.1.5,None,2025-03-29 19h32.13.516150 +0530,
surprise.jpg,s,10,1,61,1,137.42448100005277,,,,,,,,,,,,,,,,137.40366650000215,137.42448100005277,138.91566020005848,138.91566020005848,138.9317708000308,139.54724360001273,s,1,0.6192653001053259,None,,,H19,001,2025-03-29_19h24.01.149,416_EXPERIMENT_PSYCHOPY_AU2220019_AU2220225,2024.1.5,None,2025-03-29 19h32.13.516150 +0530,
surprise_upper_blur.jpg,s,10,2,62,4,139.56268780003302,,,,,,,,,,,,,,,,139.54782440001145,139.56268780003302,141.04645570006687,141.04645570006687,141.06308170000557,141.74791919998825,s,1,0.6876412000274286,None,,,H19,001,2025-03-29_19h24.01.149,416_EXPERIMENT_PSYCHOPY_AU2220019_AU2220225,2024.1.5,None,2025-03-29 19h32.13.516150 +0530,
surprise_lower_blur.jpg,s,10,3,63,5,141.7692773999879,,,,,,,,,,,,,,,,141.7496994000394,141.7692773999879,143.26066849997733,143.26066849997733,143.27803779998794,143.79665130004287,s,1,0.5278239999897778,None,,,H19,001,2025-03-29_19h24.01.149,416_EXPERIMENT_PSYCHOPY_AU2220019_AU2220225,2024.1.5,None,2025-03-29 19h32.13.516150 +0530,
fear_lower_blur.jpg,f,10,4,64,3,143.81481860007625,,,,,,,,,,,,,,,,143.79842030000873,143.81481860007625,145.30887690000236,145.30887690000236,145.32575920003,145.82714940002188,f,1,0.5089119999902323,None,,,H19,001,2025-03-29_19h24.01.149,416_EXPERIMENT_PSYCHOPY_AU2220019_AU2220225,2024.1.5,None,2025-03-29 19h32.13.516150 +0530,
fear.jpg,f,10,5,65,0,145.85282809997443,,,,,,,,,,,,,,,,145.8288352000527,145.85282809997443,147.3407991999993,147.3407991999993,147.35670790006407,147.7592650000006,f,1,0.413281699991785,None,,,H19,001,2025-03-29_19h24.01.149,416_EXPERIMENT_PSYCHOPY_AU2220019_AU2220225,2024.1.5,None,2025-03-29 19h32.13.516150 +0530,
surprise.jpg,s,11,0,66,1,147.78106000006665,,,,,,,,,,,,,,,,147.76100280007813,147.78106000006665,149.2720218000468,149.2720218000468,149.2882808999857,149.87372330005746,s,1,0.5995351999299601,None,,,H19,001,2025-03-29_19h24.01.149,416_EXPERIMENT_PSYCHOPY_AU2220019_AU2220225,2024.1.5,None,2025-03-29 19h32.13.516150 +0530,
fear.jpg,f,11,1,67,0,149.9011882999912,,,,,,,,,,,,,,,,149.87548390007578,149.9011882999912,151.38652400008868,151.38652400008868,151.40268340008333,151.8712296000449,f,1,0.4723994000814855,None,,,H19,001,2025-03-29_19h24.01.149,416_EXPERIMENT_PSYCHOPY_AU2220019_AU2220225,2024.1.5,None,2025-03-29 19h32.13.516150 +0530,
fear_upper_blur.jpg,f,11,2,68,2,151.89405060000718,,,,,,,,,,,,,,,,151.873085899977,151.89405060000718,153.38442470005248,153.38442470005248,153.40103960002307,153.8532228000695,f,1,0.46671670000068843,None,,,H19,001,2025-03-29_19h24.01.149,416_EXPERIMENT_PSYCHOPY_AU2220019_AU2220225,2024.1.5,None,2025-03-29 19h32.13.516150 +0530,
surprise_upper_blur.jpg,s,11,3,69,4,153.87726910004858,,,,,,,,,,,,,,,,153.8548416000558,153.87726910004858,155.36587960005272,155.36587960005272,155.38221469998825,156.0813976000063,s,1,0.7101791999302804,None,,,H19,001,2025-03-29_19h24.01.149,416_EXPERIMENT_PSYCHOPY_AU2220019_AU2220225,2024.1.5,None,2025-03-29 19h32.13.516150 +0530,
surprise_lower_blur.jpg,s,11,4,70,5,156.0966814000858,,,,,,,,,,,,,,,,156.08228750003036,156.0966814000858,157.597078800085,157.597078800085,157.597078800085,158.2150580000598,s,1,0.6023774000350386,None,,,H19,001,2025-03-29_19h24.01.149,416_EXPERIMENT_PSYCHOPY_AU2220019_AU2220225,2024.1.5,None,2025-03-29 19h32.13.516150 +0530,
fear_lower_blur.jpg,f,11,5,71,3,158.23908750002738,,,,,,,,,,,,,,,,158.21672400005627,158.23908750002738,159.72836830001324,159.72836830001324,159.74475970002823,160.22766740003135,s,0,0.4860009999247268,None,,,H19,001,2025-03-29_19h24.01.149,416_EXPERIMENT_PSYCHOPY_AU2220019_AU2220225,2024.1.5,None,2025-03-29 19h32.13.516150 +0530,
fear_lower_blur.jpg,f,12,0,72,3,160.2427885000361,,,,,,,,,,,,,,,,160.22853600000963,160.2427885000361,161.742935199989,161.742935199989,161.742935199989,162.37813770002685,f,1,0.6300517999334261,None,,,H19,001,2025-03-29_19h24.01.149,416_EXPERIMENT_PSYCHOPY_AU2220019_AU2220225,2024.1.5,None,2025-03-29 19h32.13.516150 +0530,
surprise.jpg,s,12,1,73,1,162.40282449999359,,,,,,,,,,,,,,,,162.3797235999955,162.40282449999359,163.89070930005983,163.89070930005983,163.9077871000627,164.4588980000699,s,1,0.5596490999450907,None,,,H19,001,2025-03-29_19h24.01.149,416_EXPERIMENT_PSYCHOPY_AU2220019_AU2220225,2024.1.5,None,2025-03-29 19h32.13.516150 +0530,
fear_upper_blur.jpg,f,12,2,74,2,164.47920120006893,,,,,,,,,,,,,,,,164.4606303999899,164.47920120006893,165.97176750004292,165.97176750004292,165.98901350004598,166.42381180007942,f,1,0.4366592000005767,None,,,H19,001,2025-03-29_19h24.01.149,416_EXPERIMENT_PSYCHOPY_AU2220019_AU2220225,2024.1.5,None,2025-03-29 19h32.13.516150 +0530,
surprise_lower_blur.jpg,s,12,3,75,5,166.44774590001907,,,,,,,,,,,,,,,,166.42543629999273,166.44774590001907,167.9369280000683,167.9369280000683,167.95348610007204,168.65236359997652,s,1,0.7106720999581739,None,,,H19,001,2025-03-29_19h24.01.149,416_EXPERIMENT_PSYCHOPY_AU2220019_AU2220225,2024.1.5,None,2025-03-29 19h32.13.516150 +0530,
fear.jpg,f,12,4,76,0,168.66831800004002,,,,,,,,,,,,,,,,168.65330450003967,168.66831800004002,170.16789959999733,170.16789959999733,170.16789959999733,170.8703977999976,f,1,0.6839045999804512,None,,,H19,001,2025-03-29_19h24.01.149,416_EXPERIMENT_PSYCHOPY_AU2220019_AU2220225,2024.1.5,None,2025-03-29 19h32.13.516150 +0530,
surprise_upper_blur.jpg,s,12,5,77,4,170.89108349999879,,,,,,,,,,,,,,,,170.87217830005102,170.89108349999879,172.38234620005824,172.38234620005824,172.39911940007005,173.11633350001648,None,0,,,173.13829939998686,173.13829939998686,H19,001,2025-03-29_19h24.01.149,416_EXPERIMENT_PSYCHOPY_AU2220019_AU2220225,2024.1.5,None,2025-03-29 19h32.13.516150 +0530,
surprise.jpg,s,13,0,78,1,173.13829939998686,,,,,,,,,,,,,,,,173.11766180000268,173.13829939998686,174.63075630005915,174.63075630005915,174.64696230005939,175.24609999998938,s,1,0.6006909999996424,None,,,H19,001,2025-03-29_19h24.01.149,416_EXPERIMENT_PSYCHOPY_AU2220019_AU2220225,2024.1.5,None,2025-03-29 19h32.13.516150 +0530,
fear_upper_blur.jpg,f,13,1,79,2,175.26128169998992,,,,,,,,,,,,,,,,175.2467183000408,175.26128169998992,176.76026220002677,176.76026220002677,176.77691940008663,177.27755810006056,f,1,0.5040155999595299,None,,,H19,001,2025-03-29_19h24.01.149,416_EXPERIMENT_PSYCHOPY_AU2220019_AU2220225,2024.1.5,None,2025-03-29 19h32.13.516150 +0530,
surprise_lower_blur.jpg,s,13,2,80,5,177.29272070003208,,,,,,,,,,,,,,,,177.2784260000335,177.29272070003208,178.79205739998724,178.79205739998724,178.79205739998724,179.4778228000505,s,1,0.6768387999618426,None,,,H19,001,2025-03-29_19h24.01.149,416_EXPERIMENT_PSYCHOPY_AU2220019_AU2220225,2024.1.5,None,2025-03-29 19h32.13.516150 +0530,
fear.jpg,f,13,3,81,0,179.50254580006003,,,,,,,,,,,,,,,,179.479532700032,179.50254580006003,180.9903182000853,180.9903182000853,181.00696350005455,181.558638800052,f,1,0.5570700999815017,None,,,H19,001,2025-03-29_19h24.01.149,416_EXPERIMENT_PSYCHOPY_AU2220019_AU2220225,2024.1.5,None,2025-03-29 19h32.13.516150 +0530,
fear_lower_blur.jpg,f,13,4,82,3,181.5807820999762,,,,,,,,,,,,,,,,181.5603293000022,181.5807820999762,183.07183570007328,183.07183570007328,183.08872660005,183.72379900002852,f,1,0.6399810999864712,None,,,H19,001,2025-03-29_19h24.01.149,416_EXPERIMENT_PSYCHOPY_AU2220019_AU2220225,2024.1.5,None,2025-03-29 19h32.13.516150 +0530,
surprise_upper_blur.jpg,s,13,5,83,4,183.7434615000384,,,,,,,,,,,,,,,,183.72574510006234,183.7434615000384,185.23634050006513,185.23634050006513,185.25292690005153,185.97014600003604,None,0,,,185.99214680003934,185.99214680003934,H19,001,2025-03-29_19h24.01.149,416_EXPERIMENT_PSYCHOPY_AU2220019_AU2220225,2024.1.5,None,2025-03-29 19h32.13.516150 +0530,
fear.jpg,f,14,0,84,0,185.99214680003934,,,,,,,,,,,,,,,,185.97145800001454,185.99214680003934,187.48416280001402,187.48416280001402,187.500762199983,187.95290080003906,f,1,0.45723960001487285,None,,,H19,001,2025-03-29_19h24.01.149,416_EXPERIMENT_PSYCHOPY_AU2220019_AU2220225,2024.1.5,None,2025-03-29 19h32.13.516150 +0530,
surprise_upper_blur.jpg,s,14,1,85,4,187.97507090005092,,,,,,,,,,,,,,,,187.95467470004223,187.97507090005092,189.46536660008132,189.46536660008132,189.4823092999868,190.05129650002345,s,1,0.5725590999936685,None,,,H19,001,2025-03-29_19h24.01.149,416_EXPERIMENT_PSYCHOPY_AU2220019_AU2220225,2024.1.5,None,2025-03-29 19h32.13.516150 +0530,
surprise_lower_blur.jpg,s,14,2,86,5,190.0731374999741,,,,,,,,,,,,,,,,190.05300590000115,190.0731374999741,191.5638485000236,191.5638485000236,191.58035890001338,192.14855330006685,s,1,0.5791177999926731,None,,,H19,001,2025-03-29_19h24.01.149,416_EXPERIMENT_PSYCHOPY_AU2220019_AU2220225,2024.1.5,None,2025-03-29 19h32.13.516150 +0530,
fear_upper_blur.jpg,f,14,3,87,2,192.17072230007034,,,,,,,,,,,,,,,,192.1501989000244,192.17072230007034,193.66168160003144,193.66168160003144,193.6783697999781,194.22964100004174,f,1,0.5514546000631526,None,,,H19,001,2025-03-29_19h24.01.149,416_EXPERIMENT_PSYCHOPY_AU2220019_AU2220225,2024.1.5,None,2025-03-29 19h32.13.516150 +0530,
fear_lower_blur.jpg,f,14,4,88,3,194.25122630002443,,,,,,,,,,,,,,,,194.23139770003036,194.25122630002443,195.74305240006652,195.74305240006652,195.76097120007034,196.24460590002127,f,1,0.4920232999138534,None,,,H19,001,2025-03-29_19h24.01.149,416_EXPERIMENT_PSYCHOPY_AU2220019_AU2220225,2024.1.5,None,2025-03-29 19h32.13.516150 +0530,
surprise.jpg,s,14,5,89,1,196.26893240003847,,,,,,,,,,,,,,,,196.24639720004052,196.26893240003847,197.75589180004317,197.75589180004317,197.7729453999782,198.22585839999374,s,1,0.45663480006624013,None,,,H19,001,2025-03-29_19h24.01.149,416_EXPERIMENT_PSYCHOPY_AU2220019_AU2220225,2024.1.5,None,2025-03-29 19h32.13.516150 +0530,
fear.jpg,f,15,0,90,0,198.25082840002142,,,,,,,,,,,,,,,,198.22752070007846,198.25082840002142,199.73892440006603,199.73892440006603,199.75545920000877,200.05820860003587,f,1,0.31366220000199974,None,,,H19,001,2025-03-29_19h24.01.149,416_EXPERIMENT_PSYCHOPY_AU2220019_AU2220225,2024.1.5,None,2025-03-29 19h32.13.516150 +0530,
fear_lower_blur.jpg,f,15,1,91,3,200.08010030002333,,,,,,,,,,,,,,,,200.0598354000831,200.08010030002333,201.57045470003504,201.57045470003504,201.5869256000733,202.1554983999813,f,1,0.5745421000756323,None,,,H19,001,2025-03-29_19h24.01.149,416_EXPERIMENT_PSYCHOPY_AU2220019_AU2220225,2024.1.5,None,2025-03-29 19h32.13.516150 +0530,
surprise_lower_blur.jpg,s,15,2,92,5,202.17911450006068,,,,,,,,,,,,,,,,202.15713960002176,202.17911450006068,203.66832830000203,203.66832830000203,203.68514279997908,204.10341770004015,s,1,0.42445449996739626,None,,,H19,001,2025-03-29_19h24.01.149,416_EXPERIMENT_PSYCHOPY_AU2220019_AU2220225,2024.1.5,None,2025-03-29 19h32.13.516150 +0530,
surprise.jpg,s,15,3,93,1,204.1306835000869,,,,,,,,,,,,,,,,204.10525700007565,204.1306835000869,205.61682800005656,205.61682800005656,205.63315830007195,206.0015864999732,f,0,0.374436300015077,None,,,H19,001,2025-03-29_19h24.01.149,416_EXPERIMENT_PSYCHOPY_AU2220019_AU2220225,2024.1.5,None,2025-03-29 19h32.13.516150 +0530,
surprise_upper_blur.jpg,s,15,4,94,4,206.02121320005972,,,,,,,,,,,,,,,,206.00337000004947,206.02121320005972,207.5147919000592,207.5147919000592,207.5310944999801,208.15005880000535,s,1,0.6302311999024823,None,,,H19,001,2025-03-29_19h24.01.149,416_EXPERIMENT_PSYCHOPY_AU2220019_AU2220225,2024.1.5,None,2025-03-29 19h32.13.516150 +0530,
fear_upper_blur.jpg,f,15,5,95,2,208.172391399974,,,,,,,,,,,,,,,,208.15180750004947,208.172391399974,209.66269510006532,209.66269510006532,209.67908090003766,210.3310736999847,f,1,0.6649407999357209,None,,,H19,001,2025-03-29_19h24.01.149,416_EXPERIMENT_PSYCHOPY_AU2220019_AU2220225,2024.1.5,None,2025-03-29 19h32.13.516150 +0530,
surprise_lower_blur.jpg,s,16,0,96,5,210.35279899998568,,,,,,,,,,,,,,,,210.3328179999953,210.35279899998568,211.84366450004745,211.84366450004745,211.86057919997256,212.26268970000092,s,1,0.4167882000328973,None,,,H19,001,2025-03-29_19h24.01.149,416_EXPERIMENT_PSYCHOPY_AU2220019_AU2220225,2024.1.5,None,2025-03-29 19h32.13.516150 +0530,
fear_upper_blur.jpg,f,16,1,97,2,212.28421650000382,,,,,,,,,,,,,,,,212.26461499999277,212.28421650000382,213.77505270007532,213.77505270007532,213.79186360002495,214.42627519997768,f,1,0.6341843999689445,None,,,H19,001,2025-03-29_19h24.01.149,416_EXPERIMENT_PSYCHOPY_AU2220019_AU2220225,2024.1.5,None,2025-03-29 19h32.13.516150 +0530,
surprise.jpg,s,16,2,98,1,214.44903230003547,,,,,,,,,,,,,,,,214.42800660000648,214.44903230003547,215.93992280005477,215.93992280005477,215.95610020007007,216.4415663999971,s,1,0.49236389994621277,None,,,H19,001,2025-03-29_19h24.01.149,416_EXPERIMENT_PSYCHOPY_AU2220019_AU2220225,2024.1.5,None,2025-03-29 19h32.13.516150 +0530,
fear.jpg,f,16,3,99,0,216.4637222000165,,,,,,,,,,,,,,,,216.44336090004072,216.4637222000165,217.95501150004566,217.95501150004566,217.97098550002556,218.70413970004302,None,0,,,,,H19,001,2025-03-29_19h24.01.149,416_EXPERIMENT_PSYCHOPY_AU2220019_AU2220225,2024.1.5,None,2025-03-29 19h32.13.516150 +0530,
fear_lower_blur.jpg,f,16,4,100,3,218.72679530002642,,,,,,,,,,,,,,,,218.7056706000585,218.72679530002642,220.20224700006656,220.20224700006656,220.23634409997612,220.72198060003575,f,1,0.5080192999448627,None,,,H19,001,2025-03-29_19h24.01.149,416_EXPERIMENT_PSYCHOPY_AU2220019_AU2220225,2024.1.5,None,2025-03-29 19h32.13.516150 +0530,
surprise_upper_blur.jpg,s,16,5,101,4,220.7447269000113,,,,,,,,,,,,,,,,220.7243698000675,220.7447269000113,222.233404800063,222.233404800063,222.25042220007163,222.58549680002034,f,0,0.3449381999671459,None,,,H19,001,2025-03-29_19h24.01.149,416_EXPERIMENT_PSYCHOPY_AU2220019_AU2220225,2024.1.5,None,2025-03-29 19h32.13.516150 +0530,
surprise_upper_blur.jpg,s,17,0,102,4,222.60634749999736,,,,,,,,,,,,,,,,222.58755990001373,222.60634749999736,224.0985627999762,224.0985627999762,224.11475529999007,224.4676375000272,f,0,0.36092389991972595,None,,,H19,001,2025-03-29_19h24.01.149,416_EXPERIMENT_PSYCHOPY_AU2220019_AU2220225,2024.1.5,None,2025-03-29 19h32.13.516150 +0530,
fear_upper_blur.jpg,f,17,1,103,2,224.48857500008307,,,,,,,,,,,,,,,,224.46936230000574,224.48857500008307,225.98018449998926,225.98018449998926,225.99681110004894,226.481544499984,f,1,0.49138349993154407,None,,,H19,001,2025-03-29_19h24.01.149,416_EXPERIMENT_PSYCHOPY_AU2220019_AU2220225,2024.1.5,None,2025-03-29 19h32.13.516150 +0530,
surprise_lower_blur.jpg,s,17,2,104,5,226.50076419999823,,,,,,,,,,,,,,,,226.4829864000203,226.50076419999823,227.995391100063,227.995391100063,228.01139830006287,228.66290039999876,s,1,0.6521907999413088,None,,,H19,001,2025-03-29_19h24.01.149,416_EXPERIMENT_PSYCHOPY_AU2220019_AU2220225,2024.1.5,None,2025-03-29 19h32.13.516150 +0530,
surprise.jpg,s,17,3,105,1,228.68859320005868,,,,,,,,,,,,,,,,228.6645846000174,228.68859320005868,230.17591480002739,230.17591480002739,230.19254469999578,230.77775970008224,s,1,0.5906533000525087,None,,,H19,001,2025-03-29_19h24.01.149,416_EXPERIMENT_PSYCHOPY_AU2220019_AU2220225,2024.1.5,None,2025-03-29 19h32.13.516150 +0530,
fear.jpg,f,17,4,106,0,230.79946890007704,,,,,,,,,,,,,,,,230.77958370000124,230.79946890007704,232.290287300013,232.290287300013,232.30680430005305,232.7754253000021,f,1,0.46760400000493973,None,,,H19,001,2025-03-29_19h24.01.149,416_EXPERIMENT_PSYCHOPY_AU2220019_AU2220225,2024.1.5,None,2025-03-29 19h32.13.516150 +0530,
fear_lower_blur.jpg,f,17,5,107,3,232.79810540005565,,,,,,,,,,,,,,,,232.77712710003834,232.79810540005565,234.28812220005784,234.28812220005784,234.3050906000426,235.02265930001158,None,0,,,235.0442681000568,235.0442681000568,H19,001,2025-03-29_19h24.01.149,416_EXPERIMENT_PSYCHOPY_AU2220019_AU2220225,2024.1.5,None,2025-03-29 19h32.13.516150 +0530,
surprise_upper_blur.jpg,s,18,0,108,4,235.0442681000568,,,,,,,,,,,,,,,,235.02404659998138,235.0442681000568,236.5360093000345,236.5360093000345,236.5527709000744,237.03841430007014,s,1,0.4954941999167204,None,,,H19,001,2025-03-29_19h24.01.149,416_EXPERIMENT_PSYCHOPY_AU2220019_AU2220225,2024.1.5,None,2025-03-29 19h32.13.516150 +0530,
fear_upper_blur.jpg,f,18,1,109,2,237.0588807000313,,,,,,,,,,,,,,,,237.04044070001692,237.0588807000313,238.55107759998646,238.55107759998646,238.5686396000674,238.97020470001735,f,1,0.4020496999146417,None,,,H19,001,2025-03-29_19h24.01.149,416_EXPERIMENT_PSYCHOPY_AU2220019_AU2220225,2024.1.5,None,2025-03-29 19h32.13.516150 +0530,
fear.jpg,f,18,2,110,0,238.9938858000096,,,,,,,,,,,,,,,,238.97189729998354,238.9938858000096,240.48221380007453,240.48221380007453,240.49871269997675,240.98382169997785,f,1,0.4855143999448046,None,,,H19,001,2025-03-29_19h24.01.149,416_EXPERIMENT_PSYCHOPY_AU2220019_AU2220225,2024.1.5,None,2025-03-29 19h32.13.516150 +0530,
fear_lower_blur.jpg,f,18,3,111,3,241.0071089999983,,,,,,,,,,,,,,,,240.9856813000515,241.0071089999983,242.49737200001255,242.49737200001255,242.51382550003473,242.94874310004525,s,0,0.4378524998901412,None,,,H19,001,2025-03-29_19h24.01.149,416_EXPERIMENT_PSYCHOPY_AU2220019_AU2220225,2024.1.5,None,2025-03-29 19h32.13.516150 +0530,
surprise.jpg,s,18,4,112,1,242.97032159997616,,,,,,,,,,,,,,,,242.95048900006805,242.97032159997616,244.46160310006235,244.46160310006235,244.47836599999573,245.08049100008793,s,1,0.6167312000179663,None,,,H19,001,2025-03-29_19h24.01.149,416_EXPERIMENT_PSYCHOPY_AU2220019_AU2220225,2024.1.5,None,2025-03-29 19h32.13.516150 +0530,
surprise_lower_blur.jpg,s,18,5,113,5,245.10294200002681,,,,,,,,,,,,,,,,245.08228319999762,245.10294200002681,246.59308840008453,246.59308840008453,246.60924350004643,246.96201080002356,f,0,0.3563394999364391,None,,,H19,001,2025-03-29_19h24.01.149,416_EXPERIMENT_PSYCHOPY_AU2220019_AU2220225,2024.1.5,None,2025-03-29 19h32.13.516150 +0530,
surprise.jpg,s,19,0,114,1,246.98329290002584,,,,,,,,,,,,,,,,246.96385689999443,246.98329290002584,248.47500820003916,248.47500820003916,248.4910261000041,248.92642620007973,f,0,0.44193720002658665,None,,,H19,001,2025-03-29_19h24.01.149,416_EXPERIMENT_PSYCHOPY_AU2220019_AU2220225,2024.1.5,None,2025-03-29 19h32.13.516150 +0530,
fear_upper_blur.jpg,f,19,1,115,2,248.9516580000054,,,,,,,,,,,,,,,,248.92856220004614,248.9516580000054,250.43927209998947,250.43927209998947,250.45569550001528,251.17324809997808,None,0,,,251.19638239999767,251.19638239999767,H19,001,2025-03-29_19h24.01.149,416_EXPERIMENT_PSYCHOPY_AU2220019_AU2220225,2024.1.5,None,2025-03-29 19h32.13.516150 +0530,
surprise_upper_blur.jpg,s,19,2,116,4,251.19638239999767,,,,,,,,,,,,,,,,251.1745478999801,251.19638239999767,252.6871515000239,252.6871515000239,252.70354999997653,253.15602870006114,f,0,0.46083130000624806,None,,,H19,001,2025-03-29_19h24.01.149,416_EXPERIMENT_PSYCHOPY_AU2220019_AU2220225,2024.1.5,None,2025-03-29 19h32.13.516150 +0530,
fear_lower_blur.jpg,f,19,3,117,3,253.17872680001892,,,,,,,,,,,,,,,,253.15784650004935,253.17872680001892,254.66835559997708,254.66835559997708,254.6852213999955,255.32009010005277,f,1,0.6407555000623688,None,,,H19,001,2025-03-29_19h24.01.149,416_EXPERIMENT_PSYCHOPY_AU2220019_AU2220225,2024.1.5,None,2025-03-29 19h32.13.516150 +0530,
fear.jpg,f,19,4,118,0,255.34224460006226,,,,,,,,,,,,,,,,255.32184350001626,255.34224460006226,256.8326820000075,256.8326820000075,256.8495023000287,257.3360560000874,f,1,0.49547820002771914,None,,,H19,001,2025-03-29_19h24.01.149,416_EXPERIMENT_PSYCHOPY_AU2220019_AU2220225,2024.1.5,None,2025-03-29 19h32.13.516150 +0530,
surprise_lower_blur.jpg,s,19,5,119,5,257.35836890002247,,,,,,,,,,,,,,,,257.3377162000397,257.35836890002247,258.8473095999798,258.8473095999798,258.86408159998246,259.58168599999044,None,0,,,259.59751150000375,259.59751150000375,H19,001,2025-03-29_19h24.01.149,416_EXPERIMENT_PSYCHOPY_AU2220019_AU2220225,2024.1.5,None,2025-03-29 19h32.13.516150 +0530,
