stimulus_image,correct_response,thisN,thisTrialN,thisRepN,key_resp.keys,key_resp.corr,key_resp.rt,key_resp.duration,loop.thisRepN,loop.thisTrialN,loop.thisN,loop.thisIndex,thisRow.t,notes,guide.started,instructions.started,ins_resp.started,guide.stopped,ins_resp.keys,ins_resp.rt,ins_resp.duration,guide_2.started,text.started,key_resp_2.started,guide_2.stopped,key_resp_2.keys,key_resp_2.rt,key_resp_2.duration,trial.started,fixation.started,image.started,key_resp.started,fixation.stopped,image.stopped,trial.stopped,loop.key_resp.keys,loop.key_resp.corr,loop.key_resp.rt,loop.key_resp.duration,key_resp.stopped,participant,session,date,expName,psychopyVersion,frameRate,expStart,
,,,,,,,,,,,,,,,0.016420300118625164,0.02554170018993318,0.02554170018993318,32.71791240014136,space,32.64591450011358,None,,,,,,,,,,,,,,,,,,,,I21,111,2025-04-02_14h12.13.136,416_EXPERIMENT_PSYCHOPY_AU2220019_AU2220225,2024.2.4,61.021785396493556,2025-04-02 14h14.31.355481 +0530,
,,,,,,,,,,,,,,,,,,,,,,32.71798470010981,32.72361050010659,32.72361050010659,37.24824890005402,space,4.518160799983889,None,,,,,,,,,,,,,I21,111,2025-04-02_14h12.13.136,416_EXPERIMENT_PSYCHOPY_AU2220019_AU2220225,2024.2.4,61.021785396493556,2025-04-02 14h14.31.355481 +0530,
surprise_upper_blur.jpg,s,0,0,0,None,0,,,0,0,0,4,37.3805815000087,,,,,,,,,,,,,,,,37.37254300015047,37.3805815000087,38.77467259997502,38.77467259997502,38.89417330012657,39.2782082001213,39.51197330001742,None,0,,,,I21,111,2025-04-02_14h12.13.136,416_EXPERIMENT_PSYCHOPY_AU2220019_AU2220225,2024.2.4,61.021785396493556,2025-04-02 14h14.31.355481 +0530,
fear_lower_blur.jpg,f,1,1,0,s,0,0.4277701999526471,None,0,1,1,3,39.53412780002691,,,,,,,,,,,,,,,,39.52859030012041,39.53412780002691,41.01110800006427,41.01110800006427,41.0446024001576,,41.4472813999746,s,0,0.4277701999526471,None,,I21,111,2025-04-02_14h12.13.136,416_EXPERIMENT_PSYCHOPY_AU2220019_AU2220225,2024.2.4,61.021785396493556,2025-04-02 14h14.31.355481 +0530,
fear.jpg,f,2,2,0,f,1,0.2571652000769973,None,0,2,2,0,41.469991700025275,,,,,,,,,,,,,,,,41.46410780004226,41.469991700025275,42.961741500068456,42.961741500068456,42.97752690012567,,43.227517100051045,f,1,0.2571652000769973,None,,I21,111,2025-04-02_14h12.13.136,416_EXPERIMENT_PSYCHOPY_AU2220019_AU2220225,2024.2.4,61.021785396493556,2025-04-02 14h14.31.355481 +0530,
surprise.jpg,s,3,3,0,None,0,,,0,3,3,1,43.24988170014694,,,,,,,,,,,,,,,,43.24472630000673,43.24988170014694,44.72792530013248,44.72792530013248,44.76098520006053,45.226057399995625,45.47652400005609,None,0,,,45.49727950012311,I21,111,2025-04-02_14h12.13.136,416_EXPERIMENT_PSYCHOPY_AU2220019_AU2220225,2024.2.4,61.021785396493556,2025-04-02 14h14.31.355481 +0530,
fear_upper_blur.jpg,f,4,4,0,f,1,0.25098339980468154,None,0,4,4,2,45.49727950012311,,,,,,,,,,,,,,,,45.49239150015637,45.49727950012311,46.97838130011223,46.97838130011223,47.010547700105235,,47.233202800154686,f,1,0.25098339980468154,None,,I21,111,2025-04-02_14h12.13.136,416_EXPERIMENT_PSYCHOPY_AU2220019_AU2220225,2024.2.4,61.021785396493556,2025-04-02 14h14.31.355481 +0530,
surprise_lower_blur.jpg,s,5,5,0,s,1,0.19770370004698634,None,0,5,5,5,47.255852499976754,,,,,,,,,,,,,,,,47.24911420000717,47.255852499976754,48.74415459996089,48.74415459996089,48.76173050003126,,48.94679050007835,s,1,0.19770370004698634,None,,I21,111,2025-04-02_14h12.13.136,416_EXPERIMENT_PSYCHOPY_AU2220019_AU2220225,2024.2.4,61.021785396493556,2025-04-02 14h14.31.355481 +0530,
surprise.jpg,s,6,0,1,f,0,0.25646329997107387,None,1,0,6,1,48.96678979997523,,,,,,,,,,,,,,,,48.96098079998046,48.96678979997523,50.46120740007609,50.46120740007609,50.478079500142485,,50.730091999983415,f,0,0.25646329997107387,None,,I21,111,2025-04-02_14h12.13.136,416_EXPERIMENT_PSYCHOPY_AU2220019_AU2220225,2024.2.4,61.021785396493556,2025-04-02 14h14.31.355481 +0530,
surprise_upper_blur.jpg,s,7,1,1,s,1,0.3478093999437988,None,1,1,7,4,50.75197990005836,,,,,,,,,,,,,,,,50.7455784000922,50.75197990005836,52.24414650001563,52.24414650001563,52.26066050003283,,52.59532169997692,s,1,0.3478093999437988,None,,I21,111,2025-04-02_14h12.13.136,416_EXPERIMENT_PSYCHOPY_AU2220019_AU2220225,2024.2.4,61.021785396493556,2025-04-02 14h14.31.355481 +0530,
surprise_lower_blur.jpg,s,8,2,1,f,0,0.33699849992990494,None,1,2,8,5,52.610937900142744,,,,,,,,,,,,,,,,52.605797399999574,52.610937900142744,54.09188419999555,54.09188419999555,54.10929640009999,,54.43503340007737,f,0,0.33699849992990494,None,,I21,111,2025-04-02_14h12.13.136,416_EXPERIMENT_PSYCHOPY_AU2220019_AU2220225,2024.2.4,61.021785396493556,2025-04-02 14h14.31.355481 +0530,
fear_upper_blur.jpg,f,9,3,1,f,1,0.2955834998283535,None,1,3,9,2,54.448447100119665,,,,,,,,,,,,,,,,54.44415250001475,54.448447100119665,55.925519600044936,55.925519600044936,55.94191449997015,,56.2272712001577,f,1,0.2955834998283535,None,,I21,111,2025-04-02_14h12.13.136,416_EXPERIMENT_PSYCHOPY_AU2220019_AU2220225,2024.2.4,61.021785396493556,2025-04-02 14h14.31.355481 +0530,
fear.jpg,f,10,4,1,s,0,0.29652979993261397,None,1,4,10,0,56.24241390009411,,,,,,,,,,,,,,,,56.23725720006041,56.24241390009411,57.72560210013762,57.72560210013762,57.73380509996787,,58.02727330010384,s,0,0.29652979993261397,None,,I21,111,2025-04-02_14h12.13.136,416_EXPERIMENT_PSYCHOPY_AU2220019_AU2220225,2024.2.4,61.021785396493556,2025-04-02 14h14.31.355481 +0530,
fear_lower_blur.jpg,f,11,5,1,f,1,0.25662099989131093,None,1,5,11,3,58.040184900164604,,,,,,,,,,,,,,,,58.036436500027776,58.040184900164604,59.5278809000738,59.5278809000738,59.54501000000164,,59.796494000125676,f,1,0.25662099989131093,None,,I21,111,2025-04-02_14h12.13.136,416_EXPERIMENT_PSYCHOPY_AU2220019_AU2220225,2024.2.4,61.021785396493556,2025-04-02 14h14.31.355481 +0530,
surprise.jpg,s,12,0,2,f,0,0.5012252000160515,None,2,0,12,1,59.813911700155586,,,,,,,,,,,,,,,,59.80823860014789,59.813911700155586,61.309013399994,61.309013399994,61.32614310015924,61.81092089996673,61.81421159999445,f,0,0.5012252000160515,None,,I21,111,2025-04-02_14h12.13.136,416_EXPERIMENT_PSYCHOPY_AU2220019_AU2220225,2024.2.4,61.021785396493556,2025-04-02 14h14.31.355481 +0530,
fear.jpg,f,13,1,2,f,1,0.3443976000417024,None,2,1,13,0,61.83143729995936,,,,,,,,,,,,,,,,61.82563760015182,61.83143729995936,63.32563930004835,63.32563930004835,63.343710700049996,,63.68101100018248,f,1,0.3443976000417024,None,,I21,111,2025-04-02_14h12.13.136,416_EXPERIMENT_PSYCHOPY_AU2220019_AU2220225,2024.2.4,61.021785396493556,2025-04-02 14h14.31.355481 +0530,
surprise_lower_blur.jpg,s,14,2,2,f,0,0.49551720009185374,None,2,2,14,5,63.70111789996736,,,,,,,,,,,,,,,,63.694632300175726,63.70111789996736,65.1955208000727,65.1955208000727,65.21178300003521,65.6929228999652,65.69474860001355,f,0,0.49551720009185374,None,,I21,111,2025-04-02_14h12.13.136,416_EXPERIMENT_PSYCHOPY_AU2220019_AU2220225,2024.2.4,61.021785396493556,2025-04-02 14h14.31.355481 +0530,
fear_lower_blur.jpg,f,15,3,2,f,1,0.6044816998764873,None,2,3,15,3,65.71507550007664,,,,,,,,,,,,,,,,65.70830080006272,65.71507550007664,67.20916830003262,67.20916830003262,67.22645880002528,67.71070890012197,67.82786630000919,f,1,0.6044816998764873,None,,I21,111,2025-04-02_14h12.13.136,416_EXPERIMENT_PSYCHOPY_AU2220019_AU2220225,2024.2.4,61.021785396493556,2025-04-02 14h14.31.355481 +0530,
surprise_upper_blur.jpg,s,16,4,2,s,1,0.5434969000052661,None,2,4,16,4,67.84562160004862,,,,,,,,,,,,,,,,67.83951670001261,67.84562160004862,69.32883100002073,69.32883100002073,69.3450356000103,69.82600170001388,69.87841480015777,s,1,0.5434969000052661,None,,I21,111,2025-04-02_14h12.13.136,416_EXPERIMENT_PSYCHOPY_AU2220019_AU2220225,2024.2.4,61.021785396493556,2025-04-02 14h14.31.355481 +0530,
fear_upper_blur.jpg,f,17,5,2,f,1,0.3325475000310689,None,2,5,17,2,69.89455770002678,,,,,,,,,,,,,,,,69.88907250016928,69.89455770002678,71.37770169996656,71.37770169996656,71.39498590002768,,71.71395010012202,f,1,0.3325475000310689,None,,I21,111,2025-04-02_14h12.13.136,416_EXPERIMENT_PSYCHOPY_AU2220019_AU2220225,2024.2.4,61.021785396493556,2025-04-02 14h14.31.355481 +0530,
fear_lower_blur.jpg,f,18,0,3,f,1,0.31213600002229214,None,3,0,18,3,71.73461610008962,,,,,,,,,,,,,,,,71.72885710000992,71.73461610008962,73.22598770004697,73.22598770004697,73.24258420011029,,73.5469317000825,f,1,0.31213600002229214,None,,I21,111,2025-04-02_14h12.13.136,416_EXPERIMENT_PSYCHOPY_AU2220019_AU2220225,2024.2.4,61.021785396493556,2025-04-02 14h14.31.355481 +0530,
surprise_upper_blur.jpg,s,19,1,3,f,0,0.43155550002120435,None,3,1,19,4,73.56744950008579,,,,,,,,,,,,,,,,73.5611219999846,73.56744950008579,75.06152070011012,75.06152070011012,75.07833830011077,,75.49680040008388,f,0,0.43155550002120435,None,,I21,111,2025-04-02_14h12.13.136,416_EXPERIMENT_PSYCHOPY_AU2220019_AU2220225,2024.2.4,61.021785396493556,2025-04-02 14h14.31.355481 +0530,
surprise_lower_blur.jpg,s,20,2,3,s,1,0.38716100016608834,None,3,2,20,5,75.51185710006393,,,,,,,,,,,,,,,,75.50669700000435,75.51185710006393,77.01165630016476,77.01165630016476,77.01165630016476,,77.41392290010117,s,1,0.38716100016608834,None,,I21,111,2025-04-02_14h12.13.136,416_EXPERIMENT_PSYCHOPY_AU2220019_AU2220225,2024.2.4,61.021785396493556,2025-04-02 14h14.31.355481 +0530,
fear.jpg,f,21,3,3,f,1,0.2682805999647826,None,3,3,21,0,77.43626040010713,,,,,,,,,,,,,,,,77.43018910009414,77.43626040010713,78.92856859997846,78.92856859997846,78.94443719997071,,79.21067639999092,f,1,0.2682805999647826,None,,I21,111,2025-04-02_14h12.13.136,416_EXPERIMENT_PSYCHOPY_AU2220019_AU2220225,2024.2.4,61.021785396493556,2025-04-02 14h14.31.355481 +0530,
surprise.jpg,s,22,4,3,s,1,0.26778530003502965,None,3,4,22,1,79.23212309996597,,,,,,,,,,,,,,,,79.22677670000121,79.23212309996597,80.71179500012659,80.71179500012659,80.74447749997489,,80.99642190011218,s,1,0.26778530003502965,None,,I21,111,2025-04-02_14h12.13.136,416_EXPERIMENT_PSYCHOPY_AU2220019_AU2220225,2024.2.4,61.021785396493556,2025-04-02 14h14.31.355481 +0530,
fear_upper_blur.jpg,f,23,5,3,f,1,0.21539999986998737,None,3,5,23,2,81.0147575000301,,,,,,,,,,,,,,,,81.01016680011526,81.0147575000301,82.5123170001898,82.5123170001898,82.5280228999909,,82.74415650009178,f,1,0.21539999986998737,None,,I21,111,2025-04-02_14h12.13.136,416_EXPERIMENT_PSYCHOPY_AU2220019_AU2220225,2024.2.4,61.021785396493556,2025-04-02 14h14.31.355481 +0530,
fear.jpg,f,24,0,4,f,1,0.2856529999990016,None,4,0,24,0,82.76577810011804,,,,,,,,,,,,,,,,82.75976629997604,82.76577810011804,84.26069480017759,84.26069480017759,84.27852419996634,,84.56306249997579,f,1,0.2856529999990016,None,,I21,111,2025-04-02_14h12.13.136,416_EXPERIMENT_PSYCHOPY_AU2220019_AU2220225,2024.2.4,61.021785396493556,2025-04-02 14h14.31.355481 +0530,
fear_lower_blur.jpg,f,25,1,4,s,0,0.37798560014925897,None,4,1,25,3,84.58162690000609,,,,,,,,,,,,,,,,84.57721140002832,84.58162690000609,86.07863270002417,86.07863270002417,86.09460930014029,,86.46129920007661,s,0,0.37798560014925897,None,,I21,111,2025-04-02_14h12.13.136,416_EXPERIMENT_PSYCHOPY_AU2220019_AU2220225,2024.2.4,61.021785396493556,2025-04-02 14h14.31.355481 +0530,
surprise.jpg,s,26,2,4,f,0,0.38678219984285533,None,4,2,26,1,86.47776859998703,,,,,,,,,,,,,,,,86.4720760001801,86.47776859998703,87.97861690004356,87.97861690004356,87.9948788001202,,88.38091469998471,f,0,0.38678219984285533,None,,I21,111,2025-04-02_14h12.13.136,416_EXPERIMENT_PSYCHOPY_AU2220019_AU2220225,2024.2.4,61.021785396493556,2025-04-02 14h14.31.355481 +0530,
surprise_lower_blur.jpg,s,27,3,4,f,0,0.3958666000980884,None,4,3,27,5,88.39894940005615,,,,,,,,,,,,,,,,88.39357429998927,88.39894940005615,89.89564949995838,89.89564949995838,89.91140640014783,,90.29589080018923,f,0,0.3958666000980884,None,,I21,111,2025-04-02_14h12.13.136,416_EXPERIMENT_PSYCHOPY_AU2220019_AU2220225,2024.2.4,61.021785396493556,2025-04-02 14h14.31.355481 +0530,
fear_upper_blur.jpg,f,28,4,4,s,0,0.5447096000425518,None,4,4,28,2,90.31192040001042,,,,,,,,,,,,,,,,90.30618670000695,90.31192040001042,91.81155990017578,91.81155990017578,91.82821050006896,92.32814220013097,92.36399290012196,s,0,0.5447096000425518,None,,I21,111,2025-04-02_14h12.13.136,416_EXPERIMENT_PSYCHOPY_AU2220019_AU2220225,2024.2.4,61.021785396493556,2025-04-02 14h14.31.355481 +0530,
surprise_upper_blur.jpg,s,29,5,4,s,1,0.6608124000485986,None,4,5,29,4,92.3847395000048,,,,,,,,,,,,,,,,92.37878779997118,92.3847395000048,93.87572140013799,93.87572140013799,93.8929290000815,94.37639650003985,94.5463915001601,s,1,0.6608124000485986,None,,I21,111,2025-04-02_14h12.13.136,416_EXPERIMENT_PSYCHOPY_AU2220019_AU2220225,2024.2.4,61.021785396493556,2025-04-02 14h14.31.355481 +0530,
fear.jpg,f,30,0,5,s,0,0.5842955000698566,None,5,0,30,0,94.56763330008835,,,,,,,,,,,,,,,,94.56158019998111,94.56763330008835,96.05964720016345,96.05964720016345,96.07584529998712,96.5592491000425,96.64824710018001,s,0,0.5842955000698566,None,,I21,111,2025-04-02_14h12.13.136,416_EXPERIMENT_PSYCHOPY_AU2220019_AU2220225,2024.2.4,61.021785396493556,2025-04-02 14h14.31.355481 +0530,
fear_upper_blur.jpg,f,31,1,5,f,1,0.3084924998693168,None,5,1,31,2,96.66907240008004,,,,,,,,,,,,,,,,96.6631412000861,96.66907240008004,98.1613873001188,98.1613873001188,98.17642100015655,,98.48091000015847,f,1,0.3084924998693168,None,,I21,111,2025-04-02_14h12.13.136,416_EXPERIMENT_PSYCHOPY_AU2220019_AU2220225,2024.2.4,61.021785396493556,2025-04-02 14h14.31.355481 +0530,
surprise_upper_blur.jpg,s,32,2,5,f,0,0.26670879987068474,None,5,2,32,4,98.5025979001075,,,,,,,,,,,,,,,,98.49666990013793,98.5025979001075,99.99491320014931,99.99491320014931,100.01194430002943,,100.26502380007878,f,0,0.26670879987068474,None,,I21,111,2025-04-02_14h12.13.136,416_EXPERIMENT_PSYCHOPY_AU2220019_AU2220225,2024.2.4,61.021785396493556,2025-04-02 14h14.31.355481 +0530,
surprise.jpg,s,33,3,5,f,0,0.33133469987660646,None,5,3,33,1,100.28309230017476,,,,,,,,,,,,,,,,100.27780920010991,100.28309230017476,101.77647130005062,101.77647130005062,101.79256640002131,,102.11201340006664,f,0,0.33133469987660646,None,,I21,111,2025-04-02_14h12.13.136,416_EXPERIMENT_PSYCHOPY_AU2220019_AU2220225,2024.2.4,61.021785396493556,2025-04-02 14h14.31.355481 +0530,
fear_lower_blur.jpg,f,34,4,5,f,1,0.4789390000514686,None,5,4,34,3,102.12902910006233,,,,,,,,,,,,,,,,102.12386300018989,102.12902910006233,103.62811650009826,103.62811650009826,103.64469520002604,,104.1116549000144,f,1,0.4789390000514686,None,,I21,111,2025-04-02_14h12.13.136,416_EXPERIMENT_PSYCHOPY_AU2220019_AU2220225,2024.2.4,61.021785396493556,2025-04-02 14h14.31.355481 +0530,
surprise_lower_blur.jpg,s,35,5,5,f,0,0.3542204999830574,None,5,5,35,5,104.13209820003249,,,,,,,,,,,,,,,,104.12543100002222,104.13209820003249,105.62564540002495,105.62564540002495,105.64259100006893,,105.99657090008259,f,0,0.3542204999830574,None,,I21,111,2025-04-02_14h12.13.136,416_EXPERIMENT_PSYCHOPY_AU2220019_AU2220225,2024.2.4,61.021785396493556,2025-04-02 14h14.31.355481 +0530,
surprise_upper_blur.jpg,s,36,0,6,None,0,,,6,0,36,4,106.01567980018444,,,,,,,,,,,,,,,,106.01063819997944,106.01567980018444,107.49563989997841,107.49563989997841,107.52569140004925,108.01296290010214,108.2434289001394,None,0,,,108.26192880002782,I21,111,2025-04-02_14h12.13.136,416_EXPERIMENT_PSYCHOPY_AU2220019_AU2220225,2024.2.4,61.021785396493556,2025-04-02 14h14.31.355481 +0530,
fear_lower_blur.jpg,f,37,1,6,f,1,0.2929853000678122,None,6,1,37,3,108.26192880002782,,,,,,,,,,,,,,,,108.25481760012917,108.26192880002782,109.7597342999652,109.7597342999652,109.7597342999652,,110.06291680014692,f,1,0.2929853000678122,None,,I21,111,2025-04-02_14h12.13.136,416_EXPERIMENT_PSYCHOPY_AU2220019_AU2220225,2024.2.4,61.021785396493556,2025-04-02 14h14.31.355481 +0530,
fear.jpg,f,38,2,6,s,0,0.25778029998764396,None,6,2,38,0,110.08346320013516,,,,,,,,,,,,,,,,110.07826830004342,110.08346320013516,111.57848390005529,111.57848390005529,111.59569260012358,,111.84744730009697,s,0,0.25778029998764396,None,,I21,111,2025-04-02_14h12.13.136,416_EXPERIMENT_PSYCHOPY_AU2220019_AU2220225,2024.2.4,61.021785396493556,2025-04-02 14h14.31.355481 +0530,
surprise_lower_blur.jpg,s,39,3,6,f,0,0.27414679992944,None,6,3,39,5,111.86859020008706,,,,,,,,,,,,,,,,111.86147120012902,111.86859020008706,113.3589375000447,113.3589375000447,113.37627020012587,,113.64392150007188,f,0,0.27414679992944,None,,I21,111,2025-04-02_14h12.13.136,416_EXPERIMENT_PSYCHOPY_AU2220019_AU2220225,2024.2.4,61.021785396493556,2025-04-02 14h14.31.355481 +0530,
fear_upper_blur.jpg,f,40,4,6,f,1,0.28474729997105896,None,6,4,40,2,113.6606785999611,,,,,,,,,,,,,,,,113.6553164999932,113.6606785999611,115.14372440008447,115.14372440008447,115.16026480006985,,115.44437430007383,f,1,0.28474729997105896,None,,I21,111,2025-04-02_14h12.13.136,416_EXPERIMENT_PSYCHOPY_AU2220019_AU2220225,2024.2.4,61.021785396493556,2025-04-02 14h14.31.355481 +0530,
surprise.jpg,s,41,5,6,f,0,0.3007276998832822,None,6,5,41,1,115.46173640014604,,,,,,,,,,,,,,,,115.456611600006,115.46173640014604,116.94341880013235,116.94341880013235,116.97563360002823,,117.26444329996593,f,0,0.3007276998832822,None,,I21,111,2025-04-02_14h12.13.136,416_EXPERIMENT_PSYCHOPY_AU2220019_AU2220225,2024.2.4,61.021785396493556,2025-04-02 14h14.31.355481 +0530,
fear_lower_blur.jpg,f,42,0,7,s,0,0.07903070002794266,None,7,0,42,3,117.28320270008408,,,,,,,,,,,,,,,,117.27882380015217,117.28320270008408,118.77747530001216,118.77747530001216,118.79400790017098,,118.86445610015653,s,0,0.07903070002794266,None,,I21,111,2025-04-02_14h12.13.136,416_EXPERIMENT_PSYCHOPY_AU2220019_AU2220225,2024.2.4,61.021785396493556,2025-04-02 14h14.31.355481 +0530,
fear.jpg,f,43,1,7,f,1,0.44624399999156594,None,7,1,43,0,118.88577040005475,,,,,,,,,,,,,,,,118.87944720010273,118.88577040005475,120.37898900010623,120.37898900010623,120.39547149999999,,120.8283874001354,f,1,0.44624399999156594,None,,I21,111,2025-04-02_14h12.13.136,416_EXPERIMENT_PSYCHOPY_AU2220019_AU2220225,2024.2.4,61.021785396493556,2025-04-02 14h14.31.355481 +0530,
surprise.jpg,s,44,2,7,f,0,0.2842046001460403,None,7,2,44,1,120.84611240006052,,,,,,,,,,,,,,,,120.84052420011722,120.84611240006052,122.32675190013833,122.32675190013833,122.36027320008725,,122.61464829999022,f,0,0.2842046001460403,None,,I21,111,2025-04-02_14h12.13.136,416_EXPERIMENT_PSYCHOPY_AU2220019_AU2220225,2024.2.4,61.021785396493556,2025-04-02 14h14.31.355481 +0530,
fear_upper_blur.jpg,f,45,3,7,s,0,0.24602969991974533,None,7,3,45,2,122.6309181000106,,,,,,,,,,,,,,,,122.62646010005847,122.6309181000106,124.12706740014255,124.12706740014255,124.14342300011776,,124.38065339997411,s,0,0.24602969991974533,None,,I21,111,2025-04-02_14h12.13.136,416_EXPERIMENT_PSYCHOPY_AU2220019_AU2220225,2024.2.4,61.021785396493556,2025-04-02 14h14.31.355481 +0530,
surprise_upper_blur.jpg,s,46,4,7,f,0,0.2517121999990195,None,7,4,46,4,124.39840990002267,,,,,,,,,,,,,,,,124.39270410011522,124.39840990002267,125.89244720013812,125.89244720013812,125.90902510005981,,126.16122240014374,f,0,0.2517121999990195,None,,I21,111,2025-04-02_14h12.13.136,416_EXPERIMENT_PSYCHOPY_AU2220019_AU2220225,2024.2.4,61.021785396493556,2025-04-02 14h14.31.355481 +0530,
surprise_lower_blur.jpg,s,47,5,7,f,0,0.26289390004239976,None,7,5,47,5,126.17692130012438,,,,,,,,,,,,,,,,126.17057449999265,126.17692130012438,127.66237549996004,127.66237549996004,127.67900640005246,,127.92981570004486,f,0,0.26289390004239976,None,,I21,111,2025-04-02_14h12.13.136,416_EXPERIMENT_PSYCHOPY_AU2220019_AU2220225,2024.2.4,61.021785396493556,2025-04-02 14h14.31.355481 +0530,
fear_upper_blur.jpg,f,48,0,8,f,1,0.267014600103721,None,8,0,48,2,127.94675690005533,,,,,,,,,,,,,,,,127.94043570011854,127.94675690005533,129.4469650001265,129.4469650001265,129.46166589995846,,129.72890250012279,f,1,0.267014600103721,None,,I21,111,2025-04-02_14h12.13.136,416_EXPERIMENT_PSYCHOPY_AU2220019_AU2220225,2024.2.4,61.021785396493556,2025-04-02 14h14.31.355481 +0530,
fear.jpg,f,49,1,8,s,0,0.2621089001186192,None,8,1,49,0,129.74541890015826,,,,,,,,,,,,,,,,129.7400564001873,129.74541890015826,131.24386220006272,131.24386220006272,131.25965630006976,,131.5136808999814,s,0,0.2621089001186192,None,,I21,111,2025-04-02_14h12.13.136,416_EXPERIMENT_PSYCHOPY_AU2220019_AU2220225,2024.2.4,61.021785396493556,2025-04-02 14h14.31.355481 +0530,
surprise_upper_blur.jpg,s,50,2,8,f,0,0.4193624001927674,None,8,2,50,4,131.52950350008905,,,,,,,,,,,,,,,,131.52372419997118,131.52950350008905,133.0276258001104,133.0276258001104,133.04503870010376,,133.46088930009864,f,0,0.4193624001927674,None,,I21,111,2025-04-02_14h12.13.136,416_EXPERIMENT_PSYCHOPY_AU2220019_AU2220225,2024.2.4,61.021785396493556,2025-04-02 14h14.31.355481 +0530,
fear_lower_blur.jpg,f,51,3,8,f,1,0.21851879986934364,None,8,3,51,3,133.477891900111,,,,,,,,,,,,,,,,133.47066940017976,133.477891900111,134.96230969997123,134.96230969997123,134.97893590014428,,135.19496570015326,f,1,0.21851879986934364,None,,I21,111,2025-04-02_14h12.13.136,416_EXPERIMENT_PSYCHOPY_AU2220019_AU2220225,2024.2.4,61.021785396493556,2025-04-02 14h14.31.355481 +0530,
surprise_lower_blur.jpg,s,52,4,8,s,1,0.19642659998498857,None,8,4,52,5,135.21192000014707,,,,,,,,,,,,,,,,135.20585270016454,135.21192000014707,136.69379599997774,136.69379599997774,136.7270496999845,,136.89511230005883,s,1,0.19642659998498857,None,,I21,111,2025-04-02_14h12.13.136,416_EXPERIMENT_PSYCHOPY_AU2220019_AU2220225,2024.2.4,61.021785396493556,2025-04-02 14h14.31.355481 +0530,
surprise.jpg,s,53,5,8,f,0,0.24490380007773638,None,8,5,53,1,136.9112601999659,,,,,,,,,,,,,,,,136.90568220010027,136.9112601999659,138.39453650009818,138.39453650009818,138.4097305999603,,138.64880480011925,f,0,0.24490380007773638,None,,I21,111,2025-04-02_14h12.13.136,416_EXPERIMENT_PSYCHOPY_AU2220019_AU2220225,2024.2.4,61.021785396493556,2025-04-02 14h14.31.355481 +0530,
surprise_upper_blur.jpg,s,54,0,9,s,1,0.30649049999192357,None,9,0,54,4,138.66958620003425,,,,,,,,,,,,,,,,138.6627215000335,138.66958620003425,140.16219010017812,140.16219010017812,140.17857099999674,,140.47807310009375,s,1,0.30649049999192357,None,,I21,111,2025-04-02_14h12.13.136,416_EXPERIMENT_PSYCHOPY_AU2220019_AU2220225,2024.2.4,61.021785396493556,2025-04-02 14h14.31.355481 +0530,
fear_upper_blur.jpg,f,55,1,9,s,0,0.28476880001835525,None,9,1,55,2,140.4942149000708,,,,,,,,,,,,,,,,140.48714700015262,140.4942149000708,141.9782847999595,141.9782847999595,141.99481629999354,,142.27902640006505,s,0,0.28476880001835525,None,,I21,111,2025-04-02_14h12.13.136,416_EXPERIMENT_PSYCHOPY_AU2220019_AU2220225,2024.2.4,61.021785396493556,2025-04-02 14h14.31.355481 +0530,
surprise_lower_blur.jpg,s,56,2,9,f,0,0.29729139991104603,None,9,2,56,5,142.29826269997284,,,,,,,,,,,,,,,,142.2923630999867,142.29826269997284,143.77835840010084,143.77835840010084,143.8117645001039,,144.08094909996726,f,0,0.29729139991104603,None,,I21,111,2025-04-02_14h12.13.136,416_EXPERIMENT_PSYCHOPY_AU2220019_AU2220225,2024.2.4,61.021785396493556,2025-04-02 14h14.31.355481 +0530,
fear.jpg,f,57,3,9,f,1,0.30263029993511736,None,9,3,57,0,144.10197250009514,,,,,,,,,,,,,,,,144.09604400000535,144.10197250009514,145.59394349996,145.59394349996,145.60987709998153,,145.91341460007243,f,1,0.30263029993511736,None,,I21,111,2025-04-02_14h12.13.136,416_EXPERIMENT_PSYCHOPY_AU2220019_AU2220225,2024.2.4,61.021785396493556,2025-04-02 14h14.31.355481 +0530,
surprise.jpg,s,58,4,9,s,1,0.33718180004507303,None,9,4,58,1,145.93020669999532,,,,,,,,,,,,,,,,145.92407479998656,145.93020669999532,147.42713159997948,147.42713159997948,147.4443690001499,,147.7810639999807,s,1,0.33718180004507303,None,,I21,111,2025-04-02_14h12.13.136,416_EXPERIMENT_PSYCHOPY_AU2220019_AU2220225,2024.2.4,61.021785396493556,2025-04-02 14h14.31.355481 +0530,
fear_lower_blur.jpg,f,59,5,9,f,1,0.19385790009982884,None,9,5,59,3,147.79947870015167,,,,,,,,,,,,,,,,147.79448710009456,147.79947870015167,149.2954065001104,149.2954065001104,149.3120409999974,,149.49745759996586,f,1,0.19385790009982884,None,,I21,111,2025-04-02_14h12.13.136,416_EXPERIMENT_PSYCHOPY_AU2220019_AU2220225,2024.2.4,61.021785396493556,2025-04-02 14h14.31.355481 +0530,
surprise_lower_blur.jpg,s,60,0,10,s,1,0.273464199854061,None,10,0,60,5,149.51711640018038,,,,,,,,,,,,,,,,149.51098949997686,149.51711640018038,151.0116839001421,151.0116839001421,151.02834439999424,,151.29691440006718,s,1,0.273464199854061,None,,I21,111,2025-04-02_14h12.13.136,416_EXPERIMENT_PSYCHOPY_AU2220019_AU2220225,2024.2.4,61.021785396493556,2025-04-02 14h14.31.355481 +0530,
surprise.jpg,s,61,1,10,f,0,0.2720347000285983,None,10,1,61,1,151.3128369001206,,,,,,,,,,,,,,,,151.30748610012233,151.3128369001206,152.80906070000492,152.80906070000492,152.82768740016036,,153.0937155999709,f,0,0.2720347000285983,None,,I21,111,2025-04-02_14h12.13.136,416_EXPERIMENT_PSYCHOPY_AU2220019_AU2220225,2024.2.4,61.021785396493556,2025-04-02 14h14.31.355481 +0530,
fear_upper_blur.jpg,f,62,2,10,f,1,0.4410142998676747,None,10,2,62,2,153.11488920007832,,,,,,,,,,,,,,,,153.10893760016188,153.11488920007832,154.5924490999896,154.5924490999896,154.62554290005937,,155.0474213999696,f,1,0.4410142998676747,None,,I21,111,2025-04-02_14h12.13.136,416_EXPERIMENT_PSYCHOPY_AU2220019_AU2220225,2024.2.4,61.021785396493556,2025-04-02 14h14.31.355481 +0530,
fear.jpg,f,63,3,10,f,1,0.4597044000402093,None,10,3,63,0,155.06427850015461,,,,,,,,,,,,,,,,155.0587367999833,155.06427850015461,156.56185180018656,156.56185180018656,156.5782368001528,,157.03016820014454,f,1,0.4597044000402093,None,,I21,111,2025-04-02_14h12.13.136,416_EXPERIMENT_PSYCHOPY_AU2220019_AU2220225,2024.2.4,61.021785396493556,2025-04-02 14h14.31.355481 +0530,
surprise_upper_blur.jpg,s,64,4,10,s,1,0.31414669984951615,None,10,4,64,4,157.0503871999681,,,,,,,,,,,,,,,,157.04457230004482,157.0503871999681,158.54393470007926,158.54393470007926,158.5610690000467,,158.86402370012365,s,1,0.31414669984951615,None,,I21,111,2025-04-02_14h12.13.136,416_EXPERIMENT_PSYCHOPY_AU2220019_AU2220225,2024.2.4,61.021785396493556,2025-04-02 14h14.31.355481 +0530,
fear_lower_blur.jpg,f,65,5,10,f,1,0.384020600002259,None,10,5,65,3,158.8848143001087,,,,,,,,,,,,,,,,158.87843340006657,158.8848143001087,160.37705849995837,160.37705849995837,160.39433749997988,,160.77691280003637,f,1,0.384020600002259,None,,I21,111,2025-04-02_14h12.13.136,416_EXPERIMENT_PSYCHOPY_AU2220019_AU2220225,2024.2.4,61.021785396493556,2025-04-02 14h14.31.355481 +0530,
fear.jpg,f,66,0,11,s,0,0.264398799976334,None,11,0,66,0,160.7969084000215,,,,,,,,,,,,,,,,160.79129700013436,160.7969084000215,162.29288449999876,162.29288449999876,162.3089136001654,,162.56435670005158,s,0,0.264398799976334,None,,I21,111,2025-04-02_14h12.13.136,416_EXPERIMENT_PSYCHOPY_AU2220019_AU2220225,2024.2.4,61.021785396493556,2025-04-02 14h14.31.355481 +0530,
surprise_upper_blur.jpg,s,67,1,11,f,0,0.3486355000641197,None,11,1,67,4,162.58284429996274,,,,,,,,,,,,,,,,162.5783118000254,162.58284429996274,164.0779834999703,164.0779834999703,164.09479030012153,,164.4435734001454,f,0,0.3486355000641197,None,,I21,111,2025-04-02_14h12.13.136,416_EXPERIMENT_PSYCHOPY_AU2220019_AU2220225,2024.2.4,61.021785396493556,2025-04-02 14h14.31.355481 +0530,
surprise_lower_blur.jpg,s,68,2,11,f,0,0.362866000039503,None,11,2,68,5,164.46202380000614,,,,,,,,,,,,,,,,164.45725680002943,164.46202380000614,165.94459960004315,165.94459960004315,165.96081660012715,,166.31179250008427,f,0,0.362866000039503,None,,I21,111,2025-04-02_14h12.13.136,416_EXPERIMENT_PSYCHOPY_AU2220019_AU2220225,2024.2.4,61.021785396493556,2025-04-02 14h14.31.355481 +0530,
fear_upper_blur.jpg,f,69,3,11,f,1,0.34746149997226894,None,11,3,69,2,166.32820350001566,,,,,,,,,,,,,,,,166.32152770017274,166.32820350001566,167.81195600004867,167.81195600004867,167.82583930017427,,168.1631795000285,f,1,0.34746149997226894,None,,I21,111,2025-04-02_14h12.13.136,416_EXPERIMENT_PSYCHOPY_AU2220019_AU2220225,2024.2.4,61.021785396493556,2025-04-02 14h14.31.355481 +0530,
fear_lower_blur.jpg,f,70,4,11,s,0,0.20996260014362633,None,11,4,70,3,168.17767270002514,,,,,,,,,,,,,,,,168.17279179999605,168.17767270002514,169.67775220004842,169.67775220004842,169.67775220004842,,169.8954257001169,s,0,0.20996260014362633,None,,I21,111,2025-04-02_14h12.13.136,416_EXPERIMENT_PSYCHOPY_AU2220019_AU2220225,2024.2.4,61.021785396493556,2025-04-02 14h14.31.355481 +0530,
surprise.jpg,s,71,5,11,f,0,0.4273451000917703,None,11,5,71,1,169.91119260014966,,,,,,,,,,,,,,,,169.90599200013094,169.91119260014966,171.4107119999826,171.4107119999826,171.4107119999826,,171.8443961001467,f,0,0.4273451000917703,None,,I21,111,2025-04-02_14h12.13.136,416_EXPERIMENT_PSYCHOPY_AU2220019_AU2220225,2024.2.4,61.021785396493556,2025-04-02 14h14.31.355481 +0530,
fear.jpg,f,72,0,12,s,0,0.32897599996067584,None,12,0,72,0,171.8609864001628,,,,,,,,,,,,,,,,171.85581330000423,171.8609864001628,173.34588140016422,173.34588140016422,173.36054480005987,,173.6805613001343,s,0,0.32897599996067584,None,,I21,111,2025-04-02_14h12.13.136,416_EXPERIMENT_PSYCHOPY_AU2220019_AU2220225,2024.2.4,61.021785396493556,2025-04-02 14h14.31.355481 +0530,
surprise_upper_blur.jpg,s,73,1,12,f,0,0.24459089990705252,None,12,1,73,4,173.700298700016,,,,,,,,,,,,,,,,173.69408889999613,173.700298700016,175.19500269996934,175.19500269996934,175.20951670012437,,175.44645439996384,f,0,0.24459089990705252,None,,I21,111,2025-04-02_14h12.13.136,416_EXPERIMENT_PSYCHOPY_AU2220019_AU2220225,2024.2.4,61.021785396493556,2025-04-02 14h14.31.355481 +0530,
surprise.jpg,s,74,2,12,f,0,0.29719610000029206,None,12,2,74,1,175.46386640006676,,,,,,,,,,,,,,,,175.4588113001082,175.46386640006676,176.962275700178,176.962275700178,176.97764750011265,,177.26285549998283,f,0,0.29719610000029206,None,,I21,111,2025-04-02_14h12.13.136,416_EXPERIMENT_PSYCHOPY_AU2220019_AU2220225,2024.2.4,61.021785396493556,2025-04-02 14h14.31.355481 +0530,
fear_upper_blur.jpg,f,75,3,12,f,1,0.5811640999745578,None,12,3,75,2,177.28356820018962,,,,,,,,,,,,,,,,177.2779157999903,177.28356820018962,178.778522600187,178.778522600187,178.7943647999782,179.2942006001249,179.36424520006403,f,1,0.5811640999745578,None,,I21,111,2025-04-02_14h12.13.136,416_EXPERIMENT_PSYCHOPY_AU2220019_AU2220225,2024.2.4,61.021785396493556,2025-04-02 14h14.31.355481 +0530,
surprise_lower_blur.jpg,s,76,4,12,s,1,0.3619848999660462,None,12,4,76,5,179.38324940018356,,,,,,,,,,,,,,,,179.37799700000323,179.38324940018356,180.87784199998714,180.87784199998714,180.89520560018718,,181.24713190016337,s,1,0.3619848999660462,None,,I21,111,2025-04-02_14h12.13.136,416_EXPERIMENT_PSYCHOPY_AU2220019_AU2220225,2024.2.4,61.021785396493556,2025-04-02 14h14.31.355481 +0530,
fear_lower_blur.jpg,f,77,5,12,s,0,0.43898059986531734,None,12,5,77,3,181.26761880004779,,,,,,,,,,,,,,,,181.26174330012873,181.26761880004779,182.76140610012226,182.76140610012226,182.77845460013486,,183.21493140002713,s,0,0.43898059986531734,None,,I21,111,2025-04-02_14h12.13.136,416_EXPERIMENT_PSYCHOPY_AU2220019_AU2220225,2024.2.4,61.021785396493556,2025-04-02 14h14.31.355481 +0530,
fear.jpg,f,78,0,13,f,1,0.67120820004493,None,13,0,78,0,183.23416610015556,,,,,,,,,,,,,,,,183.22851520008408,183.23416610015556,184.72733500017785,184.72733500017785,184.7444366000127,185.22565360018052,185.41355550009757,f,1,0.67120820004493,None,,I21,111,2025-04-02_14h12.13.136,416_EXPERIMENT_PSYCHOPY_AU2220019_AU2220225,2024.2.4,61.021785396493556,2025-04-02 14h14.31.355481 +0530,
surprise_lower_blur.jpg,s,79,1,13,f,0,0.5976221000310034,None,13,1,79,5,185.4340429001022,,,,,,,,,,,,,,,,185.42870829999447,185.4340429001022,186.9256537000183,186.9256537000183,186.94280449999496,187.42847579997033,187.52944870013744,f,0,0.5976221000310034,None,,I21,111,2025-04-02_14h12.13.136,416_EXPERIMENT_PSYCHOPY_AU2220019_AU2220225,2024.2.4,61.021785396493556,2025-04-02 14h14.31.355481 +0530,
fear_lower_blur.jpg,f,80,2,13,None,0,,,13,2,80,3,187.54968799999915,,,,,,,,,,,,,,,,187.54419549996965,187.54968799999915,189.04251509997994,189.04251509997994,189.06035100016743,189.5430717000272,189.77823580009863,None,0,,,189.79461380001158,I21,111,2025-04-02_14h12.13.136,416_EXPERIMENT_PSYCHOPY_AU2220019_AU2220225,2024.2.4,61.021785396493556,2025-04-02 14h14.31.355481 +0530,
surprise_upper_blur.jpg,s,81,3,13,None,0,,,13,3,81,4,189.79461380001158,,,,,,,,,,,,,,,,189.78851440013386,189.79461380001158,191.29471600009128,191.29471600009128,191.3097863001749,191.79445320018567,192.02855630009435,None,0,,,192.04649220011197,I21,111,2025-04-02_14h12.13.136,416_EXPERIMENT_PSYCHOPY_AU2220019_AU2220225,2024.2.4,61.021785396493556,2025-04-02 14h14.31.355481 +0530,
fear_upper_blur.jpg,f,82,4,13,s,0,0.41654949984513223,None,13,4,82,2,192.04649220011197,,,,,,,,,,,,,,,,192.04190600011498,192.04649220011197,193.52569840010256,193.52569840010256,193.56224450003356,,193.94680270017125,s,0,0.41654949984513223,None,,I21,111,2025-04-02_14h12.13.136,416_EXPERIMENT_PSYCHOPY_AU2220019_AU2220225,2024.2.4,61.021785396493556,2025-04-02 14h14.31.355481 +0530,
surprise.jpg,s,83,5,13,f,0,0.3080114000476897,None,13,5,83,1,193.9672983000055,,,,,,,,,,,,,,,,193.96216770005412,193.9672983000055,195.4602787999902,195.4602787999902,195.4758385999594,,195.77857420011424,f,0,0.3080114000476897,None,,I21,111,2025-04-02_14h12.13.136,416_EXPERIMENT_PSYCHOPY_AU2220019_AU2220225,2024.2.4,61.021785396493556,2025-04-02 14h14.31.355481 +0530,
fear.jpg,f,84,0,14,s,0,0.4267291999422014,None,14,0,84,0,195.79676280007698,,,,,,,,,,,,,,,,195.79027810017578,195.79676280007698,197.2929054000415,197.2929054000415,197.31205489998683,,197.73147590016015,s,0,0.4267291999422014,None,,I21,111,2025-04-02_14h12.13.136,416_EXPERIMENT_PSYCHOPY_AU2220019_AU2220225,2024.2.4,61.021785396493556,2025-04-02 14h14.31.355481 +0530,
surprise_lower_blur.jpg,s,85,1,14,f,0,0.5048257999587804,None,14,1,85,5,197.75046790018678,,,,,,,,,,,,,,,,197.74536150018685,197.75046790018678,199.24558120011352,199.24558120011352,199.26215149997734,199.7617546999827,199.76410180004314,f,0,0.5048257999587804,None,,I21,111,2025-04-02_14h12.13.136,416_EXPERIMENT_PSYCHOPY_AU2220019_AU2220225,2024.2.4,61.021785396493556,2025-04-02 14h14.31.355481 +0530,
surprise.jpg,s,86,2,14,s,1,0.35605620010755956,None,14,2,86,1,199.784943100065,,,,,,,,,,,,,,,,199.77939460007474,199.784943100065,201.27815380017273,201.27815380017273,201.29528500000015,,201.64517619996332,s,1,0.35605620010755956,None,,I21,111,2025-04-02_14h12.13.136,416_EXPERIMENT_PSYCHOPY_AU2220019_AU2220225,2024.2.4,61.021785396493556,2025-04-02 14h14.31.355481 +0530,
fear_lower_blur.jpg,f,87,3,14,f,1,0.6156976001802832,None,14,3,87,3,201.65950980014168,,,,,,,,,,,,,,,,201.65302200010046,201.65950980014168,203.14580040005967,203.14580040005967,203.16207570000552,203.66016760002822,203.7777178999968,f,1,0.6156976001802832,None,,I21,111,2025-04-02_14h12.13.136,416_EXPERIMENT_PSYCHOPY_AU2220019_AU2220225,2024.2.4,61.021785396493556,2025-04-02 14h14.31.355481 +0530,
fear_upper_blur.jpg,f,88,4,14,f,1,0.533727299887687,None,14,4,88,2,203.7945308999624,,,,,,,,,,,,,,,,203.78770039998926,203.7945308999624,205.2782739000395,205.2782739000395,205.29472530004568,205.77820309996605,205.827927300008,f,1,0.533727299887687,None,,I21,111,2025-04-02_14h12.13.136,416_EXPERIMENT_PSYCHOPY_AU2220019_AU2220225,2024.2.4,61.021785396493556,2025-04-02 14h14.31.355481 +0530,
surprise_upper_blur.jpg,s,89,5,14,f,0,0.24582500010728836,None,14,5,89,4,205.84827139996924,,,,,,,,,,,,,,,,205.8426388001535,205.84827139996924,207.3427846999839,207.3427846999839,207.3606462001335,,207.59594890009612,f,0,0.24582500010728836,None,,I21,111,2025-04-02_14h12.13.136,416_EXPERIMENT_PSYCHOPY_AU2220019_AU2220225,2024.2.4,61.021785396493556,2025-04-02 14h14.31.355481 +0530,
fear_upper_blur.jpg,f,90,0,15,f,1,0.43578179995529354,None,15,0,90,2,207.61329400003888,,,,,,,,,,,,,,,,207.60652579995804,207.61329400003888,209.11159810004756,209.11159810004756,209.12677610013634,,209.56429760018364,f,1,0.43578179995529354,None,,I21,111,2025-04-02_14h12.13.136,416_EXPERIMENT_PSYCHOPY_AU2220019_AU2220225,2024.2.4,61.021785396493556,2025-04-02 14h14.31.355481 +0530,
surprise_lower_blur.jpg,s,91,1,15,s,1,0.6019776999019086,None,15,1,91,5,209.58520500012673,,,,,,,,,,,,,,,,209.57906200014986,209.58520500012673,211.07828320004046,211.07828320004046,211.09407170000486,211.5775649000425,211.6973866999615,s,1,0.6019776999019086,None,,I21,111,2025-04-02_14h12.13.136,416_EXPERIMENT_PSYCHOPY_AU2220019_AU2220225,2024.2.4,61.021785396493556,2025-04-02 14h14.31.355481 +0530,
fear_lower_blur.jpg,f,92,2,15,f,1,0.336234699934721,None,15,2,92,3,211.71821300010197,,,,,,,,,,,,,,,,211.7124006000813,211.71821300010197,213.21077820006758,213.21077820006758,213.22730979998596,,213.56090310006402,f,1,0.336234699934721,None,,I21,111,2025-04-02_14h12.13.136,416_EXPERIMENT_PSYCHOPY_AU2220019_AU2220225,2024.2.4,61.021785396493556,2025-04-02 14h14.31.355481 +0530,
surprise.jpg,s,93,3,15,f,0,0.4760952000506222,None,15,3,93,1,213.5780660000164,,,,,,,,,,,,,,,,213.57250760006718,213.5780660000164,215.07803700002842,215.07803700002842,215.09457840002142,215.58358690002933,215.5634224000387,f,0,0.4760952000506222,None,,I21,111,2025-04-02_14h12.13.136,416_EXPERIMENT_PSYCHOPY_AU2220019_AU2220225,2024.2.4,61.021785396493556,2025-04-02 14h14.31.355481 +0530,
surprise_upper_blur.jpg,s,94,4,15,None,0,,,15,4,94,4,215.58358690002933,,,,,,,,,,,,,,,,215.57799990009516,215.58358690002933,217.07592550013214,217.07592550013214,217.09240500000305,217.57619920000434,217.8116336001549,None,0,,,217.82972440007143,I21,111,2025-04-02_14h12.13.136,416_EXPERIMENT_PSYCHOPY_AU2220019_AU2220225,2024.2.4,61.021785396493556,2025-04-02 14h14.31.355481 +0530,
fear.jpg,f,95,5,15,f,1,0.5438846999313682,None,15,5,95,0,217.82972440007143,,,,,,,,,,,,,,,,217.82477640011348,217.82972440007143,219.32838620012626,219.32838620012626,219.3440561001189,219.82780700013973,219.88033329998143,f,1,0.5438846999313682,None,,I21,111,2025-04-02_14h12.13.136,416_EXPERIMENT_PSYCHOPY_AU2220019_AU2220225,2024.2.4,61.021785396493556,2025-04-02 14h14.31.355481 +0530,
fear_lower_blur.jpg,f,96,0,16,s,0,0.3628241999540478,None,16,0,96,3,219.9017187000718,,,,,,,,,,,,,,,,219.89563240017742,219.9017187000718,221.3925999000203,221.3925999000203,221.4092119000852,,221.76387830008753,s,0,0.3628241999540478,None,,I21,111,2025-04-02_14h12.13.136,416_EXPERIMENT_PSYCHOPY_AU2220019_AU2220225,2024.2.4,61.021785396493556,2025-04-02 14h14.31.355481 +0530,
fear.jpg,f,97,1,16,f,1,0.41461209999397397,None,16,1,97,0,221.78494650009088,,,,,,,,,,,,,,,,221.77883850014769,221.78494650009088,223.27546510007232,223.27546510007232,223.29274430009536,,223.69731470011175,f,1,0.41461209999397397,None,,I21,111,2025-04-02_14h12.13.136,416_EXPERIMENT_PSYCHOPY_AU2220019_AU2220225,2024.2.4,61.021785396493556,2025-04-02 14h14.31.355481 +0530,
surprise.jpg,s,98,2,16,s,1,0.5561358998529613,None,16,2,98,1,223.7183777000755,,,,,,,,,,,,,,,,223.7124097000342,223.7183777000755,225.20957199996337,225.20957199996337,225.22627490013838,225.7113828000147,225.7803406000603,s,1,0.5561358998529613,None,,I21,111,2025-04-02_14h12.13.136,416_EXPERIMENT_PSYCHOPY_AU2220019_AU2220225,2024.2.4,61.021785396493556,2025-04-02 14h14.31.355481 +0530,
surprise_lower_blur.jpg,s,99,3,16,f,0,0.3080968998838216,None,16,3,99,5,225.79945260006934,,,,,,,,,,,,,,,,225.79380530002527,225.79945260006934,227.2947745001875,227.2947745001875,227.3115264000371,,227.61402420001104,f,0,0.3080968998838216,None,,I21,111,2025-04-02_14h12.13.136,416_EXPERIMENT_PSYCHOPY_AU2220019_AU2220225,2024.2.4,61.021785396493556,2025-04-02 14h14.31.355481 +0530,
surprise_upper_blur.jpg,s,100,4,16,None,0,,,16,4,100,4,227.63274030014873,,,,,,,,,,,,,,,,227.62636340013705,227.63274030014873,229.12613360001706,229.12613360001706,229.1420087001752,229.62854190007783,229.86308450018987,None,0,,,229.88244220009074,I21,111,2025-04-02_14h12.13.136,416_EXPERIMENT_PSYCHOPY_AU2220019_AU2220225,2024.2.4,61.021785396493556,2025-04-02 14h14.31.355481 +0530,
fear_upper_blur.jpg,f,101,5,16,None,0,,,16,5,101,2,229.88244220009074,,,,,,,,,,,,,,,,229.87684560008347,229.88244220009074,231.37662420002744,231.37662420002744,231.39312470005825,231.87591140018776,232.1122024001088,None,0,,,232.1305526001379,I21,111,2025-04-02_14h12.13.136,416_EXPERIMENT_PSYCHOPY_AU2220019_AU2220225,2024.2.4,61.021785396493556,2025-04-02 14h14.31.355481 +0530,
fear.jpg,f,102,0,17,f,1,0.31025169999338686,None,17,0,102,0,232.1305526001379,,,,,,,,,,,,,,,,232.1256805001758,232.1305526001379,233.62642300012521,233.62642300012521,233.64362930017523,,233.94667910016142,f,1,0.31025169999338686,None,,I21,111,2025-04-02_14h12.13.136,416_EXPERIMENT_PSYCHOPY_AU2220019_AU2220225,2024.2.4,61.021785396493556,2025-04-02 14h14.31.355481 +0530,
surprise.jpg,s,103,1,17,s,1,0.5000497999135405,None,17,1,103,1,233.96401350013912,,,,,,,,,,,,,,,,233.95768360001966,233.96401350013912,235.46248880005442,235.46248880005442,235.47845240007155,235.97590630012564,235.97786790016107,s,1,0.5000497999135405,None,,I21,111,2025-04-02_14h12.13.136,416_EXPERIMENT_PSYCHOPY_AU2220019_AU2220225,2024.2.4,61.021785396493556,2025-04-02 14h14.31.355481 +0530,
fear_lower_blur.jpg,f,104,2,17,f,1,0.39606379996985197,None,17,2,104,3,235.99369240016676,,,,,,,,,,,,,,,,235.9877882001456,235.99369240016676,237.47642370010726,237.47642370010726,237.49428440001793,,237.8800580999814,f,1,0.39606379996985197,None,,I21,111,2025-04-02_14h12.13.136,416_EXPERIMENT_PSYCHOPY_AU2220019_AU2220225,2024.2.4,61.021785396493556,2025-04-02 14h14.31.355481 +0530,
fear_upper_blur.jpg,f,105,3,17,f,1,0.34566130000166595,None,17,3,105,2,237.89639910007827,,,,,,,,,,,,,,,,237.89111650013365,237.89639910007827,239.39342980016954,239.39342980016954,239.4103485001251,,239.7485064000357,f,1,0.34566130000166595,None,,I21,111,2025-04-02_14h12.13.136,416_EXPERIMENT_PSYCHOPY_AU2220019_AU2220225,2024.2.4,61.021785396493556,2025-04-02 14h14.31.355481 +0530,
surprise_lower_blur.jpg,s,106,4,17,s,1,0.2673660998698324,None,17,4,106,5,239.76869689999148,,,,,,,,,,,,,,,,239.76256439997815,239.76869689999148,241.25898959999904,241.25898959999904,241.27613910008222,,241.53242629999295,s,1,0.2673660998698324,None,,I21,111,2025-04-02_14h12.13.136,416_EXPERIMENT_PSYCHOPY_AU2220019_AU2220225,2024.2.4,61.021785396493556,2025-04-02 14h14.31.355481 +0530,
surprise_upper_blur.jpg,s,107,5,17,f,0,0.31539060012437403,None,17,5,107,4,241.5505937000271,,,,,,,,,,,,,,,,241.54495900007896,241.5505937000271,243.04353120015003,243.04353120015003,243.05901920003816,,243.3648296999745,f,0,0.31539060012437403,None,,I21,111,2025-04-02_14h12.13.136,416_EXPERIMENT_PSYCHOPY_AU2220019_AU2220225,2024.2.4,61.021785396493556,2025-04-02 14h14.31.355481 +0530,
surprise.jpg,s,108,0,18,f,0,0.4214788998942822,None,18,0,108,1,243.38391540013254,,,,,,,,,,,,,,,,243.3787708999589,243.38391540013254,244.87638660008088,244.87638660008088,244.89300630008802,,245.31394340004772,f,0,0.4214788998942822,None,,I21,111,2025-04-02_14h12.13.136,416_EXPERIMENT_PSYCHOPY_AU2220019_AU2220225,2024.2.4,61.021785396493556,2025-04-02 14h14.31.355481 +0530,
surprise_upper_blur.jpg,s,109,1,18,s,1,0.5638879998587072,None,18,1,109,4,245.33161990018561,,,,,,,,,,,,,,,,245.3268731001299,245.33161990018561,246.8290562001057,246.8290562001057,246.84544380009174,247.34239140013233,247.41148190014064,s,1,0.5638879998587072,None,,I21,111,2025-04-02_14h12.13.136,416_EXPERIMENT_PSYCHOPY_AU2220019_AU2220225,2024.2.4,61.021785396493556,2025-04-02 14h14.31.355481 +0530,
fear_upper_blur.jpg,f,110,2,18,f,1,0.3291361001320183,None,18,2,110,2,247.4317787999753,,,,,,,,,,,,,,,,247.4268822001759,247.4317787999753,248.91058540018275,248.91058540018275,248.94365190016106,,249.24662460014224,f,1,0.3291361001320183,None,,I21,111,2025-04-02_14h12.13.136,416_EXPERIMENT_PSYCHOPY_AU2220019_AU2220225,2024.2.4,61.021785396493556,2025-04-02 14h14.31.355481 +0530,
fear_lower_blur.jpg,f,111,3,18,f,1,0.4449396999552846,None,18,3,111,3,249.26269720005803,,,,,,,,,,,,,,,,249.25684699998237,249.26269720005803,250.7592441001907,250.7592441001907,250.7755557000637,,251.21402600011788,f,1,0.4449396999552846,None,,I21,111,2025-04-02_14h12.13.136,416_EXPERIMENT_PSYCHOPY_AU2220019_AU2220225,2024.2.4,61.021785396493556,2025-04-02 14h14.31.355481 +0530,
fear.jpg,f,112,4,18,s,0,0.453753300011158,None,18,4,112,0,251.2302328001242,,,,,,,,,,,,,,,,251.22448140010238,251.2302328001242,252.72668280010112,252.72668280010112,252.74316960014403,,253.19529850012623,s,0,0.453753300011158,None,,I21,111,2025-04-02_14h12.13.136,416_EXPERIMENT_PSYCHOPY_AU2220019_AU2220225,2024.2.4,61.021785396493556,2025-04-02 14h14.31.355481 +0530,
surprise_lower_blur.jpg,s,113,5,18,s,1,0.6815553999040276,None,18,5,113,5,253.21466460009106,,,,,,,,,,,,,,,,253.20844710012898,253.21466460009106,254.6933025000617,254.6933025000617,254.7288484000601,255.19215360004455,255.3794548001606,s,1,0.6815553999040276,None,,I21,111,2025-04-02_14h12.13.136,416_EXPERIMENT_PSYCHOPY_AU2220019_AU2220225,2024.2.4,61.021785396493556,2025-04-02 14h14.31.355481 +0530,
surprise_upper_blur.jpg,s,114,0,19,f,0,0.3665682999417186,None,19,0,114,4,255.39451020001434,,,,,,,,,,,,,,,,255.38952920003794,255.39451020001434,256.892607799964,256.892607799964,256.910632800078,,257.26339550013654,f,0,0.3665682999417186,None,,I21,111,2025-04-02_14h12.13.136,416_EXPERIMENT_PSYCHOPY_AU2220019_AU2220225,2024.2.4,61.021785396493556,2025-04-02 14h14.31.355481 +0530,
fear.jpg,f,115,1,19,s,0,0.28455960005521774,None,19,1,115,0,257.28562710015103,,,,,,,,,,,,,,,,257.27912060008384,257.28562710015103,258.7777388000395,258.7777388000395,258.7942078001797,,259.08013340015896,s,0,0.28455960005521774,None,,I21,111,2025-04-02_14h12.13.136,416_EXPERIMENT_PSYCHOPY_AU2220019_AU2220225,2024.2.4,61.021785396493556,2025-04-02 14h14.31.355481 +0530,
surprise.jpg,s,116,2,19,f,0,0.37693389994092286,None,19,2,116,1,259.09632340003736,,,,,,,,,,,,,,,,259.0911966001149,259.09632340003736,260.5947259000968,260.5947259000968,260.5947259000968,,260.97756649996154,f,0,0.37693389994092286,None,,I21,111,2025-04-02_14h12.13.136,416_EXPERIMENT_PSYCHOPY_AU2220019_AU2220225,2024.2.4,61.021785396493556,2025-04-02 14h14.31.355481 +0530,
surprise_lower_blur.jpg,s,117,3,19,s,1,0.3324226001277566,None,19,3,117,5,260.99368780013174,,,,,,,,,,,,,,,,260.98789300001226,260.99368780013174,262.4928719000891,262.4928719000891,262.5090962999966,,262.8295954000205,s,1,0.3324226001277566,None,,I21,111,2025-04-02_14h12.13.136,416_EXPERIMENT_PSYCHOPY_AU2220019_AU2220225,2024.2.4,61.021785396493556,2025-04-02 14h14.31.355481 +0530,
fear_lower_blur.jpg,f,118,4,19,f,1,0.49986979993991554,None,19,4,118,3,262.8456234000623,,,,,,,,,,,,,,,,262.83971560001373,262.8456234000623,264.3426757999696,264.3426757999696,264.35898809996434,264.8428101001773,264.8449816000648,f,1,0.49986979993991554,None,,I21,111,2025-04-02_14h12.13.136,416_EXPERIMENT_PSYCHOPY_AU2220019_AU2220225,2024.2.4,61.021785396493556,2025-04-02 14h14.31.355481 +0530,
fear_upper_blur.jpg,f,119,5,19,s,0,0.37162470002658665,None,19,5,119,2,264.8619524000678,,,,,,,,,,,,,,,,264.856269299984,264.8619524000678,266.3428673001472,266.3428673001472,266.3760166000575,,266.72741110017523,s,0,0.37162470002658665,None,,I21,111,2025-04-02_14h12.13.136,416_EXPERIMENT_PSYCHOPY_AU2220019_AU2220225,2024.2.4,61.021785396493556,2025-04-02 14h14.31.355481 +0530,
