stimulus_image,correct_response,thisN,thisTrialN,thisRepN,key_resp.keys,key_resp.corr,key_resp.rt,key_resp.duration,loop.thisRepN,loop.thisTrialN,loop.thisN,loop.thisIndex,thisRow.t,notes,guide.started,instructions.started,ins_resp.started,guide.stopped,ins_resp.keys,ins_resp.rt,ins_resp.duration,guide_2.started,text.started,key_resp_2.started,guide_2.stopped,key_resp_2.keys,key_resp_2.rt,key_resp_2.duration,trial.started,fixation.started,image.started,key_resp.started,fixation.stopped,image.stopped,trial.stopped,loop.key_resp.keys,loop.key_resp.corr,key_resp.stopped,loop.key_resp.rt,loop.key_resp.duration,participant,session,date,expName,psychopyVersion,frameRate,expStart,
,,,,,,,,,,,,,,,0.004032500000903383,0.010050500015495345,0.010050500015495345,229.2944880000141,space,229.17014370000106,None,,,,,,,,,,,,,,,,,,,,J16,115,2025-04-05_17h48.00.135,416_EXPERIMENT_PSYCHOPY_AU2220019_AU2220225,2024.2.4,59.94219175669344,2025-04-05 17h48.44.474055 +0530,
,,,,,,,,,,,,,,,,,,,,,,229.2949571000063,229.30210210001678,229.30210210001678,241.74730730001465,space,12.43651920001139,None,,,,,,,,,,,,,J16,115,2025-04-05_17h48.00.135,416_EXPERIMENT_PSYCHOPY_AU2220019_AU2220225,2024.2.4,59.94219175669344,2025-04-05 17h48.44.474055 +0530,
fear_lower_blur.jpg,f,0,0,0,None,0,,,0,0,0,3,241.98385010001948,,,,,,,,,,,,,,,,241.95083280000836,241.98385010001948,243.33097840001574,243.33097840001574,243.48493350000354,243.835081600002,244.001769399998,None,0,,,,J16,115,2025-04-05_17h48.00.135,416_EXPERIMENT_PSYCHOPY_AU2220019_AU2220225,2024.2.4,59.94219175669344,2025-04-05 17h48.44.474055 +0530,
fear.jpg,f,1,1,0,None,0,,,0,1,1,0,244.03455770001165,,,,,,,,,,,,,,,,244.02712909999536,244.03455770001165,245.50112709999667,245.50112709999667,245.53417299999273,246.00148410000838,246.2397733000107,None,0,246.2708990999963,,,J16,115,2025-04-05_17h48.00.135,416_EXPERIMENT_PSYCHOPY_AU2220019_AU2220225,2024.2.4,59.94219175669344,2025-04-05 17h48.44.474055 +0530,
surprise.jpg,s,2,2,0,None,0,,,0,2,2,1,246.2708990999963,,,,,,,,,,,,,,,,246.2630729000084,246.2708990999963,247.75224709999748,247.75224709999748,247.785260500008,248.25111030001426,248.48900950001553,None,0,248.523116700002,,,J16,115,2025-04-05_17h48.00.135,416_EXPERIMENT_PSYCHOPY_AU2220019_AU2220225,2024.2.4,59.94219175669344,2025-04-05 17h48.44.474055 +0530,
surprise_upper_blur.jpg,s,3,3,0,None,0,,,0,3,3,4,248.523116700002,,,,,,,,,,,,,,,,248.51455530000385,248.523116700002,250.00193830000353,250.00193830000353,250.03514480000013,250.50196389999473,250.7381025000068,None,0,250.76921530000982,,,J16,115,2025-04-05_17h48.00.135,416_EXPERIMENT_PSYCHOPY_AU2220019_AU2220225,2024.2.4,59.94219175669344,2025-04-05 17h48.44.474055 +0530,
surprise_lower_blur.jpg,s,4,4,0,s,1,0.6932688999804668,None,0,4,4,5,250.76921530000982,,,,,,,,,,,,,,,,250.76161529999808,250.76921530000982,252.2522680000111,252.2522680000111,252.2685563999985,252.75132549999398,252.95682110000052,s,1,,0.6932688999804668,None,J16,115,2025-04-05_17h48.00.135,416_EXPERIMENT_PSYCHOPY_AU2220019_AU2220225,2024.2.4,59.94219175669344,2025-04-05 17h48.44.474055 +0530,
fear_upper_blur.jpg,f,5,5,0,s,0,0.5014204000181053,None,0,5,5,2,252.9908424000023,,,,,,,,,,,,,,,,252.9800513999944,252.9908424000023,254.4683743000205,254.4683743000205,254.50164279999444,254.96833510001306,254.9763664000202,s,0,,0.5014204000181053,None,J16,115,2025-04-05_17h48.00.135,416_EXPERIMENT_PSYCHOPY_AU2220019_AU2220225,2024.2.4,59.94219175669344,2025-04-05 17h48.44.474055 +0530,
fear_upper_blur.jpg,f,6,0,1,f,1,0.46054559998447075,None,1,0,6,2,255.00922350000474,,,,,,,,,,,,,,,,254.9996342000086,255.00922350000474,256.48582370000076,256.48582370000076,256.51877019999665,,256.9546044000017,f,1,,0.46054559998447075,None,J16,115,2025-04-05_17h48.00.135,416_EXPERIMENT_PSYCHOPY_AU2220019_AU2220225,2024.2.4,59.94219175669344,2025-04-05 17h48.44.474055 +0530,
fear_lower_blur.jpg,f,7,1,1,f,1,0.6348794999939855,None,1,1,7,3,256.97174259999883,,,,,,,,,,,,,,,,256.9668644000194,256.97174259999883,258.4687230999989,258.4687230999989,258.4853421000007,258.9679121999943,259.11218830000143,f,1,,0.6348794999939855,None,J16,115,2025-04-05_17h48.00.135,416_EXPERIMENT_PSYCHOPY_AU2220019_AU2220225,2024.2.4,59.94219175669344,2025-04-05 17h48.44.474055 +0530,
surprise_upper_blur.jpg,s,8,2,1,f,0,0.5515825000184122,None,1,2,8,4,259.1418793000048,,,,,,,,,,,,,,,,259.13531350000994,259.1418793000048,260.6179930999933,260.6179930999933,260.65147589999833,261.1181701000023,261.1867878000194,f,0,,0.5515825000184122,None,J16,115,2025-04-05_17h48.00.135,416_EXPERIMENT_PSYCHOPY_AU2220019_AU2220225,2024.2.4,59.94219175669344,2025-04-05 17h48.44.474055 +0530,
fear.jpg,f,9,3,1,s,0,0.4652350000105798,None,1,3,9,0,261.2051676000119,,,,,,,,,,,,,,,,261.2002032000164,261.2051676000119,262.7017457000038,262.7017457000038,262.7186694999982,,263.1713790000067,s,0,,0.4652350000105798,None,J16,115,2025-04-05_17h48.00.135,416_EXPERIMENT_PSYCHOPY_AU2220019_AU2220225,2024.2.4,59.94219175669344,2025-04-05 17h48.44.474055 +0530,
surprise_lower_blur.jpg,s,10,4,1,s,1,0.6143325000011828,None,1,4,10,5,263.1891323000018,,,,,,,,,,,,,,,,263.1839461000054,263.1891323000018,264.68497130001197,264.68497130001197,264.70209960002103,265.18502440000884,265.3037784000044,s,1,,0.6143325000011828,None,J16,115,2025-04-05_17h48.00.135,416_EXPERIMENT_PSYCHOPY_AU2220019_AU2220225,2024.2.4,59.94219175669344,2025-04-05 17h48.44.474055 +0530,
surprise.jpg,s,11,5,1,f,0,0.5152752000140026,None,1,5,11,1,265.3217401000147,,,,,,,,,,,,,,,,265.316928300017,265.3217401000147,266.8188908000011,266.8188908000011,266.83513530000346,267.3175379000022,267.33806850001565,f,0,,0.5152752000140026,None,J16,115,2025-04-05_17h48.00.135,416_EXPERIMENT_PSYCHOPY_AU2220019_AU2220225,2024.2.4,59.94219175669344,2025-04-05 17h48.44.474055 +0530,
surprise.jpg,s,12,0,2,s,1,0.6688451000081841,None,2,0,12,1,267.35607530002017,,,,,,,,,,,,,,,,267.3509635000082,267.35607530002017,268.85214350000024,268.85214350000024,268.8688567999925,269.3514056999993,269.53728750001756,s,1,,0.6688451000081841,None,J16,115,2025-04-05_17h48.00.135,416_EXPERIMENT_PSYCHOPY_AU2220019_AU2220225,2024.2.4,59.94219175669344,2025-04-05 17h48.44.474055 +0530,
surprise_lower_blur.jpg,s,13,1,2,s,1,0.5007339000003412,None,2,1,13,5,269.55448920000345,,,,,,,,,,,,,,,,269.5495062000118,269.55448920000345,271.0517148000072,271.0517148000072,271.0685083999997,271.55179070000304,271.5560044000158,s,1,,0.5007339000003412,None,J16,115,2025-04-05_17h48.00.135,416_EXPERIMENT_PSYCHOPY_AU2220019_AU2220225,2024.2.4,59.94219175669344,2025-04-05 17h48.44.474055 +0530,
fear_lower_blur.jpg,f,14,2,2,f,1,0.4110237999993842,None,2,2,14,3,271.5735675000178,,,,,,,,,,,,,,,,271.5684228000173,271.5735675000178,273.06892020002124,273.06892020002124,273.085376300005,,273.48620169999776,f,1,,0.4110237999993842,None,J16,115,2025-04-05_17h48.00.135,416_EXPERIMENT_PSYCHOPY_AU2220019_AU2220225,2024.2.4,59.94219175669344,2025-04-05 17h48.44.474055 +0530,
fear.jpg,f,15,3,2,f,1,0.5195764999953099,None,2,3,15,0,273.5033425000147,,,,,,,,,,,,,,,,273.49883690002025,273.5033425000147,275.00196049999795,275.00196049999795,275.01910550001776,275.5018276000046,275.53724279999733,f,1,,0.5195764999953099,None,J16,115,2025-04-05_17h48.00.135,416_EXPERIMENT_PSYCHOPY_AU2220019_AU2220225,2024.2.4,59.94219175669344,2025-04-05 17h48.44.474055 +0530,
surprise_upper_blur.jpg,s,16,4,2,s,1,0.4591927999863401,None,2,4,16,4,275.5555268000171,,,,,,,,,,,,,,,,275.5503820000158,275.5555268000171,277.0519082999963,277.0519082999963,277.0687944999954,,277.52029360001325,s,1,,0.4591927999863401,None,J16,115,2025-04-05_17h48.00.135,416_EXPERIMENT_PSYCHOPY_AU2220019_AU2220225,2024.2.4,59.94219175669344,2025-04-05 17h48.44.474055 +0530,
fear_upper_blur.jpg,f,17,5,2,s,0,0.30111860000761226,None,2,5,17,2,277.53880670000217,,,,,,,,,,,,,,,,277.53340070002014,277.53880670000217,279.0354072000191,279.0354072000191,279.05190190000576,,279.354230500001,s,0,,0.30111860000761226,None,J16,115,2025-04-05_17h48.00.135,416_EXPERIMENT_PSYCHOPY_AU2220019_AU2220225,2024.2.4,59.94219175669344,2025-04-05 17h48.44.474055 +0530,
surprise_upper_blur.jpg,s,18,0,3,s,1,0.5342828000138979,None,3,0,18,4,279.3731374000199,,,,,,,,,,,,,,,,279.36717909999425,279.3731374000199,280.86907660000725,280.86907660000725,280.8856155000103,281.3680692000198,281.41063610001584,s,1,,0.5342828000138979,None,J16,115,2025-04-05_17h48.00.135,416_EXPERIMENT_PSYCHOPY_AU2220019_AU2220225,2024.2.4,59.94219175669344,2025-04-05 17h48.44.474055 +0530,
surprise_lower_blur.jpg,s,19,1,3,f,0,0.5845721999939997,None,3,1,19,5,281.4435125000018,,,,,,,,,,,,,,,,281.4344471000077,281.4435125000018,282.9187472000194,282.9187472000194,282.95253500001854,283.41788740002085,283.51992849999806,f,0,,0.5845721999939997,None,J16,115,2025-04-05_17h48.00.135,416_EXPERIMENT_PSYCHOPY_AU2220019_AU2220225,2024.2.4,59.94219175669344,2025-04-05 17h48.44.474055 +0530,
fear_lower_blur.jpg,f,20,2,3,f,1,0.6291930000006687,None,3,2,20,3,283.5531082999951,,,,,,,,,,,,,,,,283.54352800000925,283.5531082999951,285.0356264000002,285.0356264000002,285.05174070000066,285.5352276000194,285.67331230000127,f,1,,0.6291930000006687,None,J16,115,2025-04-05_17h48.00.135,416_EXPERIMENT_PSYCHOPY_AU2220019_AU2220225,2024.2.4,59.94219175669344,2025-04-05 17h48.44.474055 +0530,
fear.jpg,f,21,3,3,s,0,0.38687909999862313,None,3,3,21,0,285.70874930001446,,,,,,,,,,,,,,,,285.69857880001655,285.70874930001446,287.18522410001606,287.18522410001606,287.21843660000013,,287.5900549000071,s,0,,0.38687909999862313,None,J16,115,2025-04-05_17h48.00.135,416_EXPERIMENT_PSYCHOPY_AU2220019_AU2220225,2024.2.4,59.94219175669344,2025-04-05 17h48.44.474055 +0530,
surprise.jpg,s,22,4,3,s,1,0.46061559999361634,None,3,4,22,1,287.6245938000211,,,,,,,,,,,,,,,,287.6165930000134,287.6245938000211,289.1026085000194,289.1026085000194,289.1361635000212,,289.57338030001847,s,1,,0.46061559999361634,None,J16,115,2025-04-05_17h48.00.135,416_EXPERIMENT_PSYCHOPY_AU2220019_AU2220225,2024.2.4,59.94219175669344,2025-04-05 17h48.44.474055 +0530,
fear_upper_blur.jpg,f,23,5,3,f,1,0.44264690001728013,None,3,5,23,2,289.60633360000793,,,,,,,,,,,,,,,,289.5971128999954,289.60633360000793,291.08547039999394,291.08547039999394,291.11924,,291.5398686999979,f,1,,0.44264690001728013,None,J16,115,2025-04-05_17h48.00.135,416_EXPERIMENT_PSYCHOPY_AU2220019_AU2220225,2024.2.4,59.94219175669344,2025-04-05 17h48.44.474055 +0530,
fear.jpg,f,24,0,4,f,1,0.38393189999624155,None,4,0,24,0,291.5742154000036,,,,,,,,,,,,,,,,291.56532310001785,291.5742154000036,293.0526901000121,293.0526901000121,293.0854212999984,,293.4433806000161,f,1,,0.38393189999624155,None,J16,115,2025-04-05_17h48.00.135,416_EXPERIMENT_PSYCHOPY_AU2220019_AU2220225,2024.2.4,59.94219175669344,2025-04-05 17h48.44.474055 +0530,
fear_lower_blur.jpg,f,25,1,4,f,1,0.683148500014795,None,4,1,25,3,293.47610570001416,,,,,,,,,,,,,,,,293.46697040001163,293.47610570001416,294.9520717000123,294.9520717000123,294.98576840001624,295.4524373000022,295.641449000017,f,1,,0.683148500014795,None,J16,115,2025-04-05_17h48.00.135,416_EXPERIMENT_PSYCHOPY_AU2220019_AU2220225,2024.2.4,59.94219175669344,2025-04-05 17h48.44.474055 +0530,
surprise_upper_blur.jpg,s,26,2,4,s,1,0.37589049999951385,None,4,2,26,4,295.6760142999992,,,,,,,,,,,,,,,,295.6667146999971,295.6760142999992,297.1522653000138,297.1522653000138,297.18528780000634,,297.5398713000177,s,1,,0.37589049999951385,None,J16,115,2025-04-05_17h48.00.135,416_EXPERIMENT_PSYCHOPY_AU2220019_AU2220225,2024.2.4,59.94219175669344,2025-04-05 17h48.44.474055 +0530,
surprise.jpg,s,27,3,4,s,1,0.5131172999972478,None,4,3,27,1,297.57543850000366,,,,,,,,,,,,,,,,297.5647484000074,297.57543850000366,299.0522126000142,299.0522126000142,299.085590600007,299.5523579000146,299.57095920000575,s,1,,0.5131172999972478,None,J16,115,2025-04-05_17h48.00.135,416_EXPERIMENT_PSYCHOPY_AU2220019_AU2220225,2024.2.4,59.94219175669344,2025-04-05 17h48.44.474055 +0530,
fear_upper_blur.jpg,f,28,4,4,f,1,0.4703779000265058,None,4,4,28,2,299.58882190001896,,,,,,,,,,,,,,,,299.58327920001466,299.58882190001896,301.08607660001144,301.08607660001144,301.1027195000206,301.5881656999991,301.5708888999943,f,1,,0.4703779000265058,None,J16,115,2025-04-05_17h48.00.135,416_EXPERIMENT_PSYCHOPY_AU2220019_AU2220225,2024.2.4,59.94219175669344,2025-04-05 17h48.44.474055 +0530,
surprise_lower_blur.jpg,s,29,5,4,f,0,0.49210579998907633,None,4,5,29,5,301.5881656999991,,,,,,,,,,,,,,,,301.58351650001714,301.5881656999991,303.08559380000224,303.08559380000224,303.1025914000056,303.58581079999567,303.58784059999743,f,0,,0.49210579998907633,None,J16,115,2025-04-05_17h48.00.135,416_EXPERIMENT_PSYCHOPY_AU2220019_AU2220225,2024.2.4,59.94219175669344,2025-04-05 17h48.44.474055 +0530,
surprise.jpg,s,30,0,5,s,1,0.7008348999952432,None,5,0,30,1,303.60575010001776,,,,,,,,,,,,,,,,303.60087960000965,303.60575010001776,305.1022748000105,305.1022748000105,305.1185673,305.617513300007,305.809519500006,s,1,,0.7008348999952432,None,J16,115,2025-04-05_17h48.00.135,416_EXPERIMENT_PSYCHOPY_AU2220019_AU2220225,2024.2.4,59.94219175669344,2025-04-05 17h48.44.474055 +0530,
surprise_lower_blur.jpg,s,31,1,5,s,1,0.5461760000034701,None,5,1,31,5,305.8435174000042,,,,,,,,,,,,,,,,305.8342949000071,305.8435174000042,307.31862910001655,307.31862910001655,307.35195149999345,307.8187567999994,307.87375280002016,s,1,,0.5461760000034701,None,J16,115,2025-04-05_17h48.00.135,416_EXPERIMENT_PSYCHOPY_AU2220019_AU2220225,2024.2.4,59.94219175669344,2025-04-05 17h48.44.474055 +0530,
surprise_upper_blur.jpg,s,32,2,5,s,1,0.6400539000169374,None,5,2,32,4,307.906753999996,,,,,,,,,,,,,,,,307.89675800001714,307.906753999996,309.38513239999884,309.38513239999884,309.419438300014,309.8851343000133,310.03919589999714,s,1,,0.6400539000169374,None,J16,115,2025-04-05_17h48.00.135,416_EXPERIMENT_PSYCHOPY_AU2220019_AU2220225,2024.2.4,59.94219175669344,2025-04-05 17h48.44.474055 +0530,
fear.jpg,f,33,3,5,f,1,0.6060399000125472,None,5,3,33,0,310.07126840000274,,,,,,,,,,,,,,,,310.06292550000944,310.07126840000274,311.5526963000011,311.5526963000011,311.5856033000164,312.0519028000126,312.1726638000109,f,1,,0.6060399000125472,None,J16,115,2025-04-05_17h48.00.135,416_EXPERIMENT_PSYCHOPY_AU2220019_AU2220225,2024.2.4,59.94219175669344,2025-04-05 17h48.44.474055 +0530,
fear_lower_blur.jpg,f,34,4,5,s,0,0.45987769999192096,None,5,4,34,3,312.20573700001114,,,,,,,,,,,,,,,,312.1969280000194,312.20573700001114,313.68583010000293,313.68583010000293,313.7196278000192,,314.15501109999605,s,0,,0.45987769999192096,None,J16,115,2025-04-05_17h48.00.135,416_EXPERIMENT_PSYCHOPY_AU2220019_AU2220225,2024.2.4,59.94219175669344,2025-04-05 17h48.44.474055 +0530,
fear_upper_blur.jpg,f,35,5,5,f,1,0.46908030001213774,None,5,5,35,2,314.1730199000158,,,,,,,,,,,,,,,,314.1677074000181,314.1730199000158,315.6688742999977,315.6688742999977,315.6858534000057,316.1751220000151,316.15546340000583,f,1,,0.46908030001213774,None,J16,115,2025-04-05_17h48.00.135,416_EXPERIMENT_PSYCHOPY_AU2220019_AU2220225,2024.2.4,59.94219175669344,2025-04-05 17h48.44.474055 +0530,
surprise.jpg,s,36,0,6,f,0,0.458882699982496,None,6,0,36,1,316.1751220000151,,,,,,,,,,,,,,,,316.169859000016,316.1751220000151,317.66791139999987,317.66791139999987,317.684184200014,,318.1353589000064,f,0,,0.458882699982496,None,J16,115,2025-04-05_17h48.00.135,416_EXPERIMENT_PSYCHOPY_AU2220019_AU2220225,2024.2.4,59.94219175669344,2025-04-05 17h48.44.474055 +0530,
fear_lower_blur.jpg,f,37,1,6,s,0,0.5262897999782581,None,6,1,37,3,318.1506564000156,,,,,,,,,,,,,,,,318.14429100000416,318.1506564000156,319.63637089999975,319.63637089999975,319.65280340000754,320.13496160000795,320.1711950000026,s,0,,0.5262897999782581,None,J16,115,2025-04-05_17h48.00.135,416_EXPERIMENT_PSYCHOPY_AU2220019_AU2220225,2024.2.4,59.94219175669344,2025-04-05 17h48.44.474055 +0530,
surprise_lower_blur.jpg,s,38,2,6,None,0,,,6,2,38,5,320.18887579999864,,,,,,,,,,,,,,,,320.1835135000001,320.18887579999864,321.68514440002036,321.68514440002036,321.70207420000224,322.18526960001327,322.4190079999971,None,0,322.4342387999932,,,J16,115,2025-04-05_17h48.00.135,416_EXPERIMENT_PSYCHOPY_AU2220019_AU2220225,2024.2.4,59.94219175669344,2025-04-05 17h48.44.474055 +0530,
fear_upper_blur.jpg,f,39,3,6,f,1,0.5631614000012632,None,6,3,39,2,322.4342387999932,,,,,,,,,,,,,,,,322.42977280000923,322.4342387999932,323.93553430002066,323.93553430002066,323.93553430002066,324.43512599999667,324.5037433000107,f,1,,0.5631614000012632,None,J16,115,2025-04-05_17h48.00.135,416_EXPERIMENT_PSYCHOPY_AU2220019_AU2220225,2024.2.4,59.94219175669344,2025-04-05 17h48.44.474055 +0530,
surprise_upper_blur.jpg,s,40,4,6,s,1,0.4248739999893587,None,6,4,40,4,324.52124800000456,,,,,,,,,,,,,,,,324.5161217999994,324.52124800000456,326.01868070001365,326.01868070001365,326.0361451000208,,326.4562444000039,s,1,,0.4248739999893587,None,J16,115,2025-04-05_17h48.00.135,416_EXPERIMENT_PSYCHOPY_AU2220019_AU2220225,2024.2.4,59.94219175669344,2025-04-05 17h48.44.474055 +0530,
fear.jpg,f,41,5,6,f,1,0.33945220001623966,None,6,5,41,0,326.4900961999956,,,,,,,,,,,,,,,,326.4806587000203,326.4900961999956,327.96919800000614,327.96919800000614,328.0012044000032,,328.32347400000435,f,1,,0.33945220001623966,None,J16,115,2025-04-05_17h48.00.135,416_EXPERIMENT_PSYCHOPY_AU2220019_AU2220225,2024.2.4,59.94219175669344,2025-04-05 17h48.44.474055 +0530,
fear_lower_blur.jpg,f,42,0,7,s,0,0.3721775999874808,None,7,0,42,3,328.3555567000003,,,,,,,,,,,,,,,,328.34620100000757,328.3555567000003,329.8349839000148,329.8349839000148,329.86879199999385,,330.2229956999945,s,0,,0.3721775999874808,None,J16,115,2025-04-05_17h48.00.135,416_EXPERIMENT_PSYCHOPY_AU2220019_AU2220225,2024.2.4,59.94219175669344,2025-04-05 17h48.44.474055 +0530,
fear.jpg,f,43,1,7,None,0,,,7,1,43,0,330.2566708000086,,,,,,,,,,,,,,,,330.24856060001184,330.2566708000086,331.73539630000596,331.73539630000596,331.7688652999932,332.23480540001765,332.471100499999,None,0,332.50168960000155,,,J16,115,2025-04-05_17h48.00.135,416_EXPERIMENT_PSYCHOPY_AU2220019_AU2220225,2024.2.4,59.94219175669344,2025-04-05 17h48.44.474055 +0530,
fear_upper_blur.jpg,f,44,2,7,s,0,0.5015700999938417,None,7,2,44,2,332.50168960000155,,,,,,,,,,,,,,,,332.4946337000001,332.50168960000155,333.98521929999697,333.98521929999697,334.0016084999952,334.4846308999986,334.50589520001085,s,0,,0.5015700999938417,None,J16,115,2025-04-05_17h48.00.135,416_EXPERIMENT_PSYCHOPY_AU2220019_AU2220225,2024.2.4,59.94219175669344,2025-04-05 17h48.44.474055 +0530,
surprise_lower_blur.jpg,s,45,3,7,None,0,,,7,3,45,5,334.5358235000167,,,,,,,,,,,,,,,,334.5286443000077,334.5358235000167,336.01902740000514,336.01902740000514,336.0349606999953,336.5179897000198,336.75377989999834,None,0,336.7867943000165,,,J16,115,2025-04-05_17h48.00.135,416_EXPERIMENT_PSYCHOPY_AU2220019_AU2220225,2024.2.4,59.94219175669344,2025-04-05 17h48.44.474055 +0530,
surprise.jpg,s,46,4,7,s,1,0.5911911000148393,None,7,4,46,1,336.7867943000165,,,,,,,,,,,,,,,,336.77897440001834,336.7867943000165,338.26844650000567,338.26844650000567,338.3015704000136,338.7679624000157,338.86830400000326,s,1,,0.5911911000148393,None,J16,115,2025-04-05_17h48.00.135,416_EXPERIMENT_PSYCHOPY_AU2220019_AU2220225,2024.2.4,59.94219175669344,2025-04-05 17h48.44.474055 +0530,
surprise_upper_blur.jpg,s,47,5,7,s,1,0.5547423000098206,None,7,5,47,4,338.88594710000325,,,,,,,,,,,,,,,,338.8808760000102,338.88594710000325,340.3693429999985,340.3693429999985,340.3855298999988,340.8849022000213,340.93954230000963,s,1,,0.5547423000098206,None,J16,115,2025-04-05_17h48.00.135,416_EXPERIMENT_PSYCHOPY_AU2220019_AU2220225,2024.2.4,59.94219175669344,2025-04-05 17h48.44.474055 +0530,
surprise.jpg,s,48,0,8,s,1,0.4156636999978218,None,8,0,48,1,340.9616029000026,,,,,,,,,,,,,,,,340.9565674000187,340.9616029000026,342.45250600000145,342.45250600000145,342.4691917000164,,342.87244750000536,s,1,,0.4156636999978218,None,J16,115,2025-04-05_17h48.00.135,416_EXPERIMENT_PSYCHOPY_AU2220019_AU2220225,2024.2.4,59.94219175669344,2025-04-05 17h48.44.474055 +0530,
fear_lower_blur.jpg,f,49,1,8,f,1,0.3639508000051137,None,8,1,49,3,342.88936510001076,,,,,,,,,,,,,,,,342.88485840000794,342.88936510001076,344.38594579999335,344.38594579999335,344.4021125000145,,344.7543608999986,f,1,,0.3639508000051137,None,J16,115,2025-04-05_17h48.00.135,416_EXPERIMENT_PSYCHOPY_AU2220019_AU2220225,2024.2.4,59.94219175669344,2025-04-05 17h48.44.474055 +0530,
surprise_lower_blur.jpg,s,50,2,8,None,0,,,8,2,50,5,344.7718332000077,,,,,,,,,,,,,,,,344.7668651000131,344.7718332000077,346.268183600012,346.268183600012,346.28557910001837,346.7678467000078,347.00318950001383,None,0,347.0211302000098,,,J16,115,2025-04-05_17h48.00.135,416_EXPERIMENT_PSYCHOPY_AU2220019_AU2220225,2024.2.4,59.94219175669344,2025-04-05 17h48.44.474055 +0530,
fear.jpg,f,51,3,8,f,1,0.4934802000061609,None,8,3,51,0,347.0211302000098,,,,,,,,,,,,,,,,347.01653399999486,347.0211302000098,348.5190655000042,348.5190655000042,348.5351132999931,349.0180219000031,349.0204228000075,f,1,,0.4934802000061609,None,J16,115,2025-04-05_17h48.00.135,416_EXPERIMENT_PSYCHOPY_AU2220019_AU2220225,2024.2.4,59.94219175669344,2025-04-05 17h48.44.474055 +0530,
fear_upper_blur.jpg,f,52,4,8,f,1,0.6305707000137772,None,8,4,52,2,349.0377955000149,,,,,,,,,,,,,,,,349.03337449999526,349.0377955000149,350.5358244999952,350.5358244999952,350.55263700001524,351.03562650000094,351.17515009999624,f,1,,0.6305707000137772,None,J16,115,2025-04-05_17h48.00.135,416_EXPERIMENT_PSYCHOPY_AU2220019_AU2220225,2024.2.4,59.94219175669344,2025-04-05 17h48.44.474055 +0530,
surprise_upper_blur.jpg,s,53,5,8,None,0,,,8,5,53,4,351.21309720000136,,,,,,,,,,,,,,,,351.20109590000357,351.21309720000136,352.68527529999847,352.68527529999847,352.71862210001564,353.18555419999757,353.41940350001096,None,0,353.45238490001066,,,J16,115,2025-04-05_17h48.00.135,416_EXPERIMENT_PSYCHOPY_AU2220019_AU2220225,2024.2.4,59.94219175669344,2025-04-05 17h48.44.474055 +0530,
surprise_lower_blur.jpg,s,54,0,9,s,1,0.6306721000000834,None,9,0,54,5,353.45238490001066,,,,,,,,,,,,,,,,353.44306020002114,353.45238490001066,354.9353878000111,354.9353878000111,354.9520157999941,355.43423189999885,355.5744301000086,s,1,,0.6306721000000834,None,J16,115,2025-04-05_17h48.00.135,416_EXPERIMENT_PSYCHOPY_AU2220019_AU2220225,2024.2.4,59.94219175669344,2025-04-05 17h48.44.474055 +0530,
surprise.jpg,s,55,1,9,s,1,0.5747495999967214,None,9,1,55,1,355.61101829999825,,,,,,,,,,,,,,,,355.6008756000083,355.61101829999825,357.08528180001304,357.08528180001304,357.11887299999944,357.5844771999982,357.67262389999814,s,1,,0.5747495999967214,None,J16,115,2025-04-05_17h48.00.135,416_EXPERIMENT_PSYCHOPY_AU2220019_AU2220225,2024.2.4,59.94219175669344,2025-04-05 17h48.44.474055 +0530,
fear_lower_blur.jpg,f,56,2,9,f,1,0.5686775000067428,None,9,2,56,3,357.70735480001895,,,,,,,,,,,,,,,,357.697067400004,357.70735480001895,359.1851751000213,359.1851751000213,359.21838450001087,359.68538060001447,359.77053500001784,f,1,,0.5686775000067428,None,J16,115,2025-04-05_17h48.00.135,416_EXPERIMENT_PSYCHOPY_AU2220019_AU2220225,2024.2.4,59.94219175669344,2025-04-05 17h48.44.474055 +0530,
fear_upper_blur.jpg,f,57,3,9,f,1,0.5096756000129972,None,9,3,57,2,359.7880133000144,,,,,,,,,,,,,,,,359.7834436999983,359.7880133000144,361.2861138000153,361.2861138000153,361.3017487000034,361.8024467000214,361.8066378000076,f,1,,0.5096756000129972,None,J16,115,2025-04-05_17h48.00.135,416_EXPERIMENT_PSYCHOPY_AU2220019_AU2220225,2024.2.4,59.94219175669344,2025-04-05 17h48.44.474055 +0530,
surprise_upper_blur.jpg,s,58,4,9,s,1,0.7088414000172634,None,9,4,58,4,361.84041970002,,,,,,,,,,,,,,,,361.8305351000163,361.84041970002,363.3188710999966,363.3188710999966,363.3523916999984,363.81800630001817,364.04046439999365,s,1,,0.7088414000172634,None,J16,115,2025-04-05_17h48.00.135,416_EXPERIMENT_PSYCHOPY_AU2220019_AU2220225,2024.2.4,59.94219175669344,2025-04-05 17h48.44.474055 +0530,
fear.jpg,f,59,5,9,f,1,0.3742774999991525,None,9,5,59,0,364.07491280001705,,,,,,,,,,,,,,,,364.0651427000121,364.07491280001705,365.5522382000054,365.5522382000054,365.5851263999939,,365.93966800000635,f,1,,0.3742774999991525,None,J16,115,2025-04-05_17h48.00.135,416_EXPERIMENT_PSYCHOPY_AU2220019_AU2220225,2024.2.4,59.94219175669344,2025-04-05 17h48.44.474055 +0530,
fear.jpg,f,60,0,10,s,0,0.4964279000123497,None,10,0,60,0,365.97316009999486,,,,,,,,,,,,,,,,365.9644238000037,365.97316009999486,367.45157100001234,367.45157100001234,367.4846748000127,367.95188090001466,367.956992899999,s,0,,0.4964279000123497,None,J16,115,2025-04-05_17h48.00.135,416_EXPERIMENT_PSYCHOPY_AU2220019_AU2220225,2024.2.4,59.94219175669344,2025-04-05 17h48.44.474055 +0530,
surprise_lower_blur.jpg,s,61,1,10,s,1,0.6093466999882367,None,10,1,61,5,367.98916290001944,,,,,,,,,,,,,,,,367.9806683000061,367.98916290001944,369.4686188000196,369.4686188000196,369.50181899999734,369.968374899996,370.0893728999945,s,1,,0.6093466999882367,None,J16,115,2025-04-05_17h48.00.135,416_EXPERIMENT_PSYCHOPY_AU2220019_AU2220225,2024.2.4,59.94219175669344,2025-04-05 17h48.44.474055 +0530,
fear_upper_blur.jpg,f,62,2,10,None,0,,,10,2,62,2,370.1221951000043,,,,,,,,,,,,,,,,370.11320580000756,370.1221951000043,371.6027366000053,371.6027366000053,371.63538640001207,372.1021195999929,372.3532702999946,None,0,,,,J16,115,2025-04-05_17h48.00.135,416_EXPERIMENT_PSYCHOPY_AU2220019_AU2220225,2024.2.4,59.94219175669344,2025-04-05 17h48.44.474055 +0530,
surprise.jpg,s,63,3,10,f,0,0.2977553000091575,None,10,3,63,1,372.3848477000138,,,,,,,,,,,,,,,,372.3772947000107,372.3848477000138,373.8518046000099,373.8518046000099,373.8855559999938,,374.15719190001255,f,0,,0.2977553000091575,None,J16,115,2025-04-05_17h48.00.135,416_EXPERIMENT_PSYCHOPY_AU2220019_AU2220225,2024.2.4,59.94219175669344,2025-04-05 17h48.44.474055 +0530,
fear_lower_blur.jpg,f,64,4,10,None,0,,,10,4,64,3,374.18863030002103,,,,,,,,,,,,,,,,374.179361699993,374.18863030002103,375.67090960001224,375.67090960001224,375.702766900009,376.18452840001555,376.4193847000133,None,0,,,,J16,115,2025-04-05_17h48.00.135,416_EXPERIMENT_PSYCHOPY_AU2220019_AU2220225,2024.2.4,59.94219175669344,2025-04-05 17h48.44.474055 +0530,
surprise_upper_blur.jpg,s,65,5,10,f,0,0.35372229997301474,None,10,5,65,4,376.45237899999483,,,,,,,,,,,,,,,,376.4440673000063,376.45237899999483,377.9188748000015,377.9188748000015,377.9523842000053,,378.29042510001455,f,0,,0.35372229997301474,None,J16,115,2025-04-05_17h48.00.135,416_EXPERIMENT_PSYCHOPY_AU2220019_AU2220225,2024.2.4,59.94219175669344,2025-04-05 17h48.44.474055 +0530,
fear_lower_blur.jpg,f,66,0,11,f,1,0.515391399996588,None,11,0,66,3,378.3231769000122,,,,,,,,,,,,,,,,378.3144888000097,378.3231769000122,379.80181160001666,379.80181160001666,379.83507450000616,380.30117670001346,380.3213440999971,f,1,,0.515391399996588,None,J16,115,2025-04-05_17h48.00.135,416_EXPERIMENT_PSYCHOPY_AU2220019_AU2220225,2024.2.4,59.94219175669344,2025-04-05 17h48.44.474055 +0530,
surprise_lower_blur.jpg,s,67,1,11,s,1,0.41888909999397583,None,11,1,67,5,380.33917819999624,,,,,,,,,,,,,,,,380.3341719000018,380.33917819999624,381.8353594999935,381.8353594999935,381.85229900002014,,382.2696246000123,s,1,,0.41888909999397583,None,J16,115,2025-04-05_17h48.00.135,416_EXPERIMENT_PSYCHOPY_AU2220019_AU2220225,2024.2.4,59.94219175669344,2025-04-05 17h48.44.474055 +0530,
surprise.jpg,s,68,2,11,s,1,0.6444400000036694,None,11,2,68,1,382.28810090001207,,,,,,,,,,,,,,,,382.28346740000416,382.28810090001207,383.78531599999405,383.78531599999405,383.8022355000139,384.284299299994,384.44026329999906,s,1,,0.6444400000036694,None,J16,115,2025-04-05_17h48.00.135,416_EXPERIMENT_PSYCHOPY_AU2220019_AU2220225,2024.2.4,59.94219175669344,2025-04-05 17h48.44.474055 +0530,
fear_upper_blur.jpg,f,69,3,11,s,0,0.40450169998803176,None,11,3,69,2,384.4740127999976,,,,,,,,,,,,,,,,384.4646794,384.4740127999976,385.95215080000344,385.95215080000344,385.98513549999916,,386.37476080001215,s,0,,0.40450169998803176,None,J16,115,2025-04-05_17h48.00.135,416_EXPERIMENT_PSYCHOPY_AU2220019_AU2220225,2024.2.4,59.94219175669344,2025-04-05 17h48.44.474055 +0530,
surprise_upper_blur.jpg,s,70,4,11,f,0,0.5514444000145886,None,11,4,70,4,386.4093284000119,,,,,,,,,,,,,,,,386.3997210999951,386.4093284000119,387.8862334000005,387.8862334000005,387.9192805000057,388.3847816000052,388.4556455000129,f,0,,0.5514444000145886,None,J16,115,2025-04-05_17h48.00.135,416_EXPERIMENT_PSYCHOPY_AU2220019_AU2220225,2024.2.4,59.94219175669344,2025-04-05 17h48.44.474055 +0530,
fear.jpg,f,71,5,11,None,0,,,11,5,71,0,388.48830359999556,,,,,,,,,,,,,,,,388.48071410000557,388.48830359999556,389.96875369999907,389.96875369999907,390.0023832000152,390.4682485999947,390.70330210000975,None,0,390.720630900003,,,J16,115,2025-04-05_17h48.00.135,416_EXPERIMENT_PSYCHOPY_AU2220019_AU2220225,2024.2.4,59.94219175669344,2025-04-05 17h48.44.474055 +0530,
surprise_lower_blur.jpg,s,72,0,12,None,0,,,12,0,72,5,390.720630900003,,,,,,,,,,,,,,,,390.71596780000255,390.720630900003,392.2188066999952,392.2188066999952,392.23513730001287,392.71803160000127,392.95435800001724,None,0,392.98687310001696,,,J16,115,2025-04-05_17h48.00.135,416_EXPERIMENT_PSYCHOPY_AU2220019_AU2220225,2024.2.4,59.94219175669344,2025-04-05 17h48.44.474055 +0530,
fear.jpg,f,73,1,12,s,0,0.6885076999897137,None,12,1,73,0,392.98687310001696,,,,,,,,,,,,,,,,392.9797899000114,392.98687310001696,394.46895380000933,394.46895380000933,394.501668300014,394.96798899999703,395.17251440000837,s,0,,0.6885076999897137,None,J16,115,2025-04-05_17h48.00.135,416_EXPERIMENT_PSYCHOPY_AU2220019_AU2220225,2024.2.4,59.94219175669344,2025-04-05 17h48.44.474055 +0530,
surprise_upper_blur.jpg,s,74,2,12,None,0,,,12,2,74,4,395.20812320002005,,,,,,,,,,,,,,,,395.1977856000012,395.20812320002005,396.6856014000077,396.6856014000077,396.718943600019,397.1846931000182,397.42099680000683,None,0,397.4535604999983,,,J16,115,2025-04-05_17h48.00.135,416_EXPERIMENT_PSYCHOPY_AU2220019_AU2220225,2024.2.4,59.94219175669344,2025-04-05 17h48.44.474055 +0530,
fear_lower_blur.jpg,f,75,3,12,None,0,,,12,3,75,3,397.4535604999983,,,,,,,,,,,,,,,,397.44543580000754,397.4535604999983,398.9358260000008,398.9358260000008,398.9687599000172,399.4352851000149,399.67125499999383,None,0,399.7028269000002,,,J16,115,2025-04-05_17h48.00.135,416_EXPERIMENT_PSYCHOPY_AU2220019_AU2220225,2024.2.4,59.94219175669344,2025-04-05 17h48.44.474055 +0530,
surprise.jpg,s,76,4,12,s,1,0.5983589999959804,None,12,4,76,1,399.7028269000002,,,,,,,,,,,,,,,,399.69604660000186,399.7028269000002,401.1860418000142,401.1860418000142,401.2024720000045,401.6843979000114,401.79087779999827,s,1,,0.5983589999959804,None,J16,115,2025-04-05_17h48.00.135,416_EXPERIMENT_PSYCHOPY_AU2220019_AU2220225,2024.2.4,59.94219175669344,2025-04-05 17h48.44.474055 +0530,
fear_upper_blur.jpg,f,77,5,12,s,0,0.5207190000219271,None,12,5,77,2,401.8253258000186,,,,,,,,,,,,,,,,401.8150824000186,401.8253258000186,403.3026221000182,403.3026221000182,403.33561030001147,403.8022009000124,403.8398492000124,s,0,,0.5207190000219271,None,J16,115,2025-04-05_17h48.00.135,416_EXPERIMENT_PSYCHOPY_AU2220019_AU2220225,2024.2.4,59.94219175669344,2025-04-05 17h48.44.474055 +0530,
fear_upper_blur.jpg,f,78,0,13,None,0,,,13,0,78,2,403.87061990000075,,,,,,,,,,,,,,,,403.863591500005,403.87061990000075,405.3521949000133,405.3521949000133,405.3855687000032,405.8520329000021,406.1015127999999,None,0,,,,J16,115,2025-04-05_17h48.00.135,416_EXPERIMENT_PSYCHOPY_AU2220019_AU2220225,2024.2.4,59.94219175669344,2025-04-05 17h48.44.474055 +0530,
surprise.jpg,s,79,1,13,None,0,,,13,1,79,1,406.13390450002044,,,,,,,,,,,,,,,,406.12628570001107,406.13390450002044,407.6026278999925,407.6026278999925,407.6362005000119,408.101903200004,408.33788900001673,None,0,408.37094740002067,,,J16,115,2025-04-05_17h48.00.135,416_EXPERIMENT_PSYCHOPY_AU2220019_AU2220225,2024.2.4,59.94219175669344,2025-04-05 17h48.44.474055 +0530,
fear.jpg,f,80,2,13,f,1,0.4574152999848593,None,13,2,80,0,408.37094740002067,,,,,,,,,,,,,,,,408.36192590001156,408.37094740002067,409.85239159999765,409.85239159999765,409.88558510001167,,410.3204450000194,f,1,,0.4574152999848593,None,J16,115,2025-04-05_17h48.00.135,416_EXPERIMENT_PSYCHOPY_AU2220019_AU2220225,2024.2.4,59.94219175669344,2025-04-05 17h48.44.474055 +0530,
surprise_upper_blur.jpg,s,81,3,13,f,0,0.5140434000059031,None,13,3,81,4,410.3388360000099,,,,,,,,,,,,,,,,410.3331712000072,410.3388360000099,411.8354770000151,411.8354770000151,411.8522113999934,412.3350144000142,412.3578596000152,f,0,,0.5140434000059031,None,J16,115,2025-04-05_17h48.00.135,416_EXPERIMENT_PSYCHOPY_AU2220019_AU2220225,2024.2.4,59.94219175669344,2025-04-05 17h48.44.474055 +0530,
surprise_lower_blur.jpg,s,82,4,13,s,1,0.5446550000051502,None,13,4,82,5,412.3902243000048,,,,,,,,,,,,,,,,412.38080590000027,412.3902243000048,413.8695044000051,413.8695044000051,413.9020462000044,414.3858196999936,414.4230593999964,s,1,,0.5446550000051502,None,J16,115,2025-04-05_17h48.00.135,416_EXPERIMENT_PSYCHOPY_AU2220019_AU2220225,2024.2.4,59.94219175669344,2025-04-05 17h48.44.474055 +0530,
fear_lower_blur.jpg,f,83,5,13,f,1,0.36519400001270697,None,13,5,83,3,414.4521848000004,,,,,,,,,,,,,,,,414.4457537000126,414.4521848000004,415.93619800001034,415.93619800001034,415.9519020000007,,416.3084778000193,f,1,,0.36519400001270697,None,J16,115,2025-04-05_17h48.00.135,416_EXPERIMENT_PSYCHOPY_AU2220019_AU2220225,2024.2.4,59.94219175669344,2025-04-05 17h48.44.474055 +0530,
fear.jpg,f,84,0,14,f,1,0.5008745999948587,None,14,0,84,0,416.3431451000215,,,,,,,,,,,,,,,,416.3340358000132,416.3431451000215,417.8187009000103,417.8187009000103,417.85243530001026,418.3175234000082,418.3372575000103,f,1,,0.5008745999948587,None,J16,115,2025-04-05_17h48.00.135,416_EXPERIMENT_PSYCHOPY_AU2220019_AU2220225,2024.2.4,59.94219175669344,2025-04-05 17h48.44.474055 +0530,
surprise.jpg,s,85,1,14,s,1,0.3781862999894656,None,14,1,85,1,418.35518509999383,,,,,,,,,,,,,,,,418.35045660001924,418.35518509999383,419.85244489999604,419.85244489999604,419.8687001999933,,420.23794320001616,s,1,,0.3781862999894656,None,J16,115,2025-04-05_17h48.00.135,416_EXPERIMENT_PSYCHOPY_AU2220019_AU2220225,2024.2.4,59.94219175669344,2025-04-05 17h48.44.474055 +0530,
surprise_upper_blur.jpg,s,86,2,14,s,1,0.5123136999900453,None,14,2,86,4,420.25590479999664,,,,,,,,,,,,,,,,420.25054629999795,420.25590479999664,421.75273229999584,421.75273229999584,421.7691596999939,422.25177269999404,422.27128040001844,s,1,,0.5123136999900453,None,J16,115,2025-04-05_17h48.00.135,416_EXPERIMENT_PSYCHOPY_AU2220019_AU2220225,2024.2.4,59.94219175669344,2025-04-05 17h48.44.474055 +0530,
fear_upper_blur.jpg,f,87,3,14,s,0,0.44359380000969395,None,14,3,87,2,422.2887174000207,,,,,,,,,,,,,,,,422.2836248000094,422.2887174000207,423.7859754000092,423.7859754000092,423.8024109000107,,424.23832070000935,s,0,,0.44359380000969395,None,J16,115,2025-04-05_17h48.00.135,416_EXPERIMENT_PSYCHOPY_AU2220019_AU2220225,2024.2.4,59.94219175669344,2025-04-05 17h48.44.474055 +0530,
fear_lower_blur.jpg,f,88,4,14,f,1,0.6425037999870256,None,14,4,88,3,424.25582230000873,,,,,,,,,,,,,,,,424.25026200001594,424.25582230000873,425.7522511999996,425.7522511999996,425.7686893999926,426.2512295000197,426.404441199993,f,1,,0.6425037999870256,None,J16,115,2025-04-05_17h48.00.135,416_EXPERIMENT_PSYCHOPY_AU2220019_AU2220225,2024.2.4,59.94219175669344,2025-04-05 17h48.44.474055 +0530,
surprise_lower_blur.jpg,s,89,5,14,s,1,0.5273423000180628,None,14,5,89,5,426.4229298999999,,,,,,,,,,,,,,,,426.4172213000129,426.4229298999999,427.91948790001334,427.91948790001334,427.93589500000235,428.41868269999395,428.45469840001897,s,1,,0.5273423000180628,None,J16,115,2025-04-05_17h48.00.135,416_EXPERIMENT_PSYCHOPY_AU2220019_AU2220225,2024.2.4,59.94219175669344,2025-04-05 17h48.44.474055 +0530,
fear_lower_blur.jpg,f,90,0,15,f,1,0.5088727000111248,None,15,0,90,3,428.47165200000745,,,,,,,,,,,,,,,,428.46708210001816,428.47165200000745,429.9687435000087,429.9687435000087,429.9857074000174,430.46809810001287,430.4903655000089,f,1,,0.5088727000111248,None,J16,115,2025-04-05_17h48.00.135,416_EXPERIMENT_PSYCHOPY_AU2220019_AU2220225,2024.2.4,59.94219175669344,2025-04-05 17h48.44.474055 +0530,
surprise_upper_blur.jpg,s,91,1,15,s,1,0.49365690001286566,None,15,1,91,4,430.5259331999987,,,,,,,,,,,,,,,,430.51482949999627,430.5259331999987,432.0021943000029,432.0021943000029,432.03550520000863,432.5023989000183,432.5052682000096,s,1,,0.49365690001286566,None,J16,115,2025-04-05_17h48.00.135,416_EXPERIMENT_PSYCHOPY_AU2220019_AU2220225,2024.2.4,59.94219175669344,2025-04-05 17h48.44.474055 +0530,
surprise.jpg,s,92,2,15,f,0,0.7060640999989118,None,15,2,92,1,432.52358589999494,,,,,,,,,,,,,,,,432.5183566000196,432.52358589999494,434.0189783000096,434.0189783000096,434.0364126000204,434.519415799994,434.7376104000141,f,0,,0.7060640999989118,None,J16,115,2025-04-05_17h48.00.135,416_EXPERIMENT_PSYCHOPY_AU2220019_AU2220225,2024.2.4,59.94219175669344,2025-04-05 17h48.44.474055 +0530,
fear.jpg,f,93,3,15,f,1,0.5879710000008345,None,15,3,93,0,434.75674690000596,,,,,,,,,,,,,,,,434.7512182999926,434.75674690000596,436.25281530001666,436.25281530001666,436.268599300005,436.75164639999275,436.8543733000115,f,1,,0.5879710000008345,None,J16,115,2025-04-05_17h48.00.135,416_EXPERIMENT_PSYCHOPY_AU2220019_AU2220225,2024.2.4,59.94219175669344,2025-04-05 17h48.44.474055 +0530,
fear_upper_blur.jpg,f,94,4,15,s,0,0.4650322000088636,None,15,4,94,2,436.87235930000315,,,,,,,,,,,,,,,,436.866926000017,436.87235930000315,438.3696769000089,438.3696769000089,438.3857471999945,,438.8386190000165,s,0,,0.4650322000088636,None,J16,115,2025-04-05_17h48.00.135,416_EXPERIMENT_PSYCHOPY_AU2220019_AU2220225,2024.2.4,59.94219175669344,2025-04-05 17h48.44.474055 +0530,
surprise_lower_blur.jpg,s,95,5,15,s,1,0.5899932999745943,None,15,5,95,5,438.85639820000506,,,,,,,,,,,,,,,,438.85083690000465,438.85639820000506,440.3526259000064,440.3526259000064,440.36918110001716,440.8524732000078,440.95287370000733,s,1,,0.5899932999745943,None,J16,115,2025-04-05_17h48.00.135,416_EXPERIMENT_PSYCHOPY_AU2220019_AU2220225,2024.2.4,59.94219175669344,2025-04-05 17h48.44.474055 +0530,
surprise.jpg,s,96,0,16,s,1,0.5432479000010062,None,16,0,96,1,440.9702988000063,,,,,,,,,,,,,,,,440.96568350002053,440.9702988000063,442.4522278000077,442.4522278000077,442.486229800008,442.95215769999777,443.00426469999366,s,1,,0.5432479000010062,None,J16,115,2025-04-05_17h48.00.135,416_EXPERIMENT_PSYCHOPY_AU2220019_AU2220225,2024.2.4,59.94219175669344,2025-04-05 17h48.44.474055 +0530,
fear_lower_blur.jpg,f,97,1,16,s,0,0.5339719999756198,None,16,1,97,3,443.02194060001057,,,,,,,,,,,,,,,,443.01645749999443,443.02194060001057,444.5194073000166,444.5194073000166,444.53561150000314,445.01842170002055,445.07080580000184,s,0,,0.5339719999756198,None,J16,115,2025-04-05_17h48.00.135,416_EXPERIMENT_PSYCHOPY_AU2220019_AU2220225,2024.2.4,59.94219175669344,2025-04-05 17h48.44.474055 +0530,
surprise_lower_blur.jpg,s,98,2,16,s,1,0.5552752999938093,None,16,2,98,5,445.0882954999979,,,,,,,,,,,,,,,,445.0830929999938,445.0882954999979,446.58576479999465,446.58576479999465,446.60325990000274,447.0853558999952,447.15395649999846,s,1,,0.5552752999938093,None,J16,115,2025-04-05_17h48.00.135,416_EXPERIMENT_PSYCHOPY_AU2220019_AU2220225,2024.2.4,59.94219175669344,2025-04-05 17h48.44.474055 +0530,
fear.jpg,f,99,3,16,s,0,0.5977567000081763,None,16,3,99,0,447.1725893999974,,,,,,,,,,,,,,,,447.16691070000525,447.1725893999974,448.669332200021,448.669332200021,448.68596180001623,449.16828090001945,449.2709325000178,s,0,,0.5977567000081763,None,J16,115,2025-04-05_17h48.00.135,416_EXPERIMENT_PSYCHOPY_AU2220019_AU2220225,2024.2.4,59.94219175669344,2025-04-05 17h48.44.474055 +0530,
fear_upper_blur.jpg,f,100,4,16,f,1,0.506985900021391,None,16,4,100,2,449.2887135000201,,,,,,,,,,,,,,,,449.283611699997,449.2887135000201,450.7853034000145,450.7853034000145,450.8017292000004,451.28500740000163,451.30307630001334,f,1,,0.506985900021391,None,J16,115,2025-04-05_17h48.00.135,416_EXPERIMENT_PSYCHOPY_AU2220019_AU2220225,2024.2.4,59.94219175669344,2025-04-05 17h48.44.474055 +0530,
surprise_upper_blur.jpg,s,101,5,16,s,1,0.5511908999760635,None,16,5,101,4,451.32091989999753,,,,,,,,,,,,,,,,451.31643950002035,451.32091989999753,452.81876049999846,452.81876049999846,452.83574130001944,453.31830159999663,453.3870817999996,s,1,,0.5511908999760635,None,J16,115,2025-04-05_17h48.00.135,416_EXPERIMENT_PSYCHOPY_AU2220019_AU2220225,2024.2.4,59.94219175669344,2025-04-05 17h48.44.474055 +0530,
fear_lower_blur.jpg,f,102,0,17,s,0,0.53245609998703,None,17,0,102,3,453.40656269999454,,,,,,,,,,,,,,,,453.3999192000192,453.40656269999454,454.90192160001607,454.90192160001607,454.9181071000057,455.40116639999906,455.4376573000045,s,0,,0.53245609998703,None,J16,115,2025-04-05_17h48.00.135,416_EXPERIMENT_PSYCHOPY_AU2220019_AU2220225,2024.2.4,59.94219175669344,2025-04-05 17h48.44.474055 +0530,
fear.jpg,f,103,1,17,None,0,,,17,1,103,0,455.4560039000062,,,,,,,,,,,,,,,,455.45079689999693,455.4560039000062,456.95164320000913,456.95164320000913,456.96835530002136,457.4516730000032,457.68686159999925,None,0,457.70347619999666,,,J16,115,2025-04-05_17h48.00.135,416_EXPERIMENT_PSYCHOPY_AU2220019_AU2220225,2024.2.4,59.94219175669344,2025-04-05 17h48.44.474055 +0530,
surprise_upper_blur.jpg,s,104,2,17,None,0,,,17,2,104,4,457.70347619999666,,,,,,,,,,,,,,,,457.69935290000285,457.70347619999666,459.20169489999535,459.20169489999535,459.2188483000209,459.70139940001536,459.9361826000095,None,0,459.95278340001823,,,J16,115,2025-04-05_17h48.00.135,416_EXPERIMENT_PSYCHOPY_AU2220019_AU2220225,2024.2.4,59.94219175669344,2025-04-05 17h48.44.474055 +0530,
surprise_lower_blur.jpg,s,105,3,17,None,0,,,17,3,105,5,459.95278340001823,,,,,,,,,,,,,,,,459.9484597000119,459.95278340001823,461.4514907000121,461.4514907000121,461.4689145000011,461.9512128000206,462.1857563999947,None,0,462.2030824999965,,,J16,115,2025-04-05_17h48.00.135,416_EXPERIMENT_PSYCHOPY_AU2220019_AU2220225,2024.2.4,59.94219175669344,2025-04-05 17h48.44.474055 +0530,
fear_upper_blur.jpg,f,106,4,17,s,0,0.573565900005633,None,17,4,106,2,462.2030824999965,,,,,,,,,,,,,,,,462.1991018000117,462.2030824999965,463.7025086999929,463.7025086999929,463.71856930002104,464.2015175000124,464.2855416999955,s,0,,0.573565900005633,None,J16,115,2025-04-05_17h48.00.135,416_EXPERIMENT_PSYCHOPY_AU2220019_AU2220225,2024.2.4,59.94219175669344,2025-04-05 17h48.44.474055 +0530,
surprise.jpg,s,107,5,17,None,0,,,17,5,107,1,464.30292960000224,,,,,,,,,,,,,,,,464.2984652000014,464.30292960000224,465.78476490001776,465.78476490001776,465.81861489999574,466.28443480000715,466.51946390001103,None,0,466.5364722000086,,,J16,115,2025-04-05_17h48.00.135,416_EXPERIMENT_PSYCHOPY_AU2220019_AU2220225,2024.2.4,59.94219175669344,2025-04-05 17h48.44.474055 +0530,
surprise_upper_blur.jpg,s,108,0,18,None,0,,,18,0,108,4,466.5364722000086,,,,,,,,,,,,,,,,466.53191220000735,466.5364722000086,468.03481300000567,468.03481300000567,468.05231670002104,468.53459880000446,468.76940119999927,None,0,468.78658040001756,,,J16,115,2025-04-05_17h48.00.135,416_EXPERIMENT_PSYCHOPY_AU2220019_AU2220225,2024.2.4,59.94219175669344,2025-04-05 17h48.44.474055 +0530,
fear_upper_blur.jpg,f,109,1,18,f,1,0.61277139998856,None,18,1,109,2,468.78658040001756,,,,,,,,,,,,,,,,468.7825688000012,468.78658040001756,470.30147629999556,470.30147629999556,470.30147629999556,470.80074360000435,470.9188209999993,f,1,,0.61277139998856,None,J16,115,2025-04-05_17h48.00.135,416_EXPERIMENT_PSYCHOPY_AU2220019_AU2220225,2024.2.4,59.94219175669344,2025-04-05 17h48.44.474055 +0530,
fear_lower_blur.jpg,f,110,2,18,f,1,0.535266099992441,None,18,2,110,3,470.9346308000095,,,,,,,,,,,,,,,,470.93055930000264,470.9346308000095,472.418608100008,472.418608100008,472.4352004000102,472.9181224000058,472.9703218000068,f,1,,0.535266099992441,None,J16,115,2025-04-05_17h48.00.135,416_EXPERIMENT_PSYCHOPY_AU2220019_AU2220225,2024.2.4,59.94219175669344,2025-04-05 17h48.44.474055 +0530,
fear.jpg,f,111,3,18,f,1,0.5252037000027485,None,18,3,111,0,472.98863629999687,,,,,,,,,,,,,,,,472.9833991000196,472.98863629999687,474.48605300000054,474.48605300000054,474.5017966000014,475.0013031999988,475.019856400002,f,1,,0.5252037000027485,None,J16,115,2025-04-05_17h48.00.135,416_EXPERIMENT_PSYCHOPY_AU2220019_AU2220225,2024.2.4,59.94219175669344,2025-04-05 17h48.44.474055 +0530,
surprise.jpg,s,112,4,18,s,1,0.4584201999823563,None,18,4,112,1,475.0379776000045,,,,,,,,,,,,,,,,475.03319700001157,475.0379776000045,476.5353974000027,476.5353974000027,476.5516425000096,,477.00411830001394,s,1,,0.4584201999823563,None,J16,115,2025-04-05_17h48.00.135,416_EXPERIMENT_PSYCHOPY_AU2220019_AU2220225,2024.2.4,59.94219175669344,2025-04-05 17h48.44.474055 +0530,
surprise_lower_blur.jpg,s,113,5,18,None,0,,,18,5,113,5,477.0225134000066,,,,,,,,,,,,,,,,477.01702170001226,477.0225134000066,478.51869600001373,478.51869600001373,478.53560530001414,479.0184924000059,479.2529476000054,None,0,479.26896240000497,,,J16,115,2025-04-05_17h48.00.135,416_EXPERIMENT_PSYCHOPY_AU2220019_AU2220225,2024.2.4,59.94219175669344,2025-04-05 17h48.44.474055 +0530,
surprise_upper_blur.jpg,s,114,0,19,s,1,0.5987036000005901,None,19,0,114,4,479.26896240000497,,,,,,,,,,,,,,,,479.2651001000195,479.26896240000497,480.768106500007,480.768106500007,480.768106500007,481.26840080000693,481.3700870000175,s,1,,0.5987036000005901,None,J16,115,2025-04-05_17h48.00.135,416_EXPERIMENT_PSYCHOPY_AU2220019_AU2220225,2024.2.4,59.94219175669344,2025-04-05 17h48.44.474055 +0530,
surprise.jpg,s,115,1,19,f,0,0.3553267999959644,None,19,1,115,1,481.38761720000184,,,,,,,,,,,,,,,,481.3834800000186,481.38761720000184,482.88537400000496,482.88537400000496,482.90180829999736,,483.2526928000152,f,0,,0.3553267999959644,None,J16,115,2025-04-05_17h48.00.135,416_EXPERIMENT_PSYCHOPY_AU2220019_AU2220225,2024.2.4,59.94219175669344,2025-04-05 17h48.44.474055 +0530,
surprise_lower_blur.jpg,s,116,2,19,s,1,0.562892699992517,None,19,2,116,5,483.2696911999956,,,,,,,,,,,,,,,,483.2648451999994,483.2696911999956,484.76846730001853,484.76846730001853,484.78544999999576,485.2677721999935,485.3373644000094,s,1,,0.562892699992517,None,J16,115,2025-04-05_17h48.00.135,416_EXPERIMENT_PSYCHOPY_AU2220019_AU2220225,2024.2.4,59.94219175669344,2025-04-05 17h48.44.474055 +0530,
fear_lower_blur.jpg,f,117,3,19,s,0,0.47395159999723546,None,19,3,117,3,485.35493410000345,,,,,,,,,,,,,,,,485.3497633000079,485.35493410000345,486.85211219999474,486.85211219999474,486.86865620000754,487.355204099993,487.33704860002035,s,0,,0.47395159999723546,None,J16,115,2025-04-05_17h48.00.135,416_EXPERIMENT_PSYCHOPY_AU2220019_AU2220225,2024.2.4,59.94219175669344,2025-04-05 17h48.44.474055 +0530,
fear_upper_blur.jpg,f,118,4,19,f,1,0.5434161000011954,None,19,4,118,2,487.355204099993,,,,,,,,,,,,,,,,487.35012540000025,487.355204099993,488.8528742000053,488.8528742000053,488.86882100001094,489.3679459000123,489.4076342000044,f,1,,0.5434161000011954,None,J16,115,2025-04-05_17h48.00.135,416_EXPERIMENT_PSYCHOPY_AU2220019_AU2220225,2024.2.4,59.94219175669344,2025-04-05 17h48.44.474055 +0530,
fear.jpg,f,119,5,19,f,1,0.5071294000081252,None,19,5,119,0,489.4428059000056,,,,,,,,,,,,,,,,489.4339614000055,489.4428059000056,490.9186551000166,490.9186551000166,490.95205690001603,491.4182593000005,491.43971969999257,f,1,,0.5071294000081252,None,J16,115,2025-04-05_17h48.00.135,416_EXPERIMENT_PSYCHOPY_AU2220019_AU2220225,2024.2.4,59.94219175669344,2025-04-05 17h48.44.474055 +0530,
