stimulus_image,correct_response,thisN,thisTrialN,thisRepN,key_resp.keys,key_resp.corr,key_resp.rt,key_resp.duration,loop.thisRepN,loop.thisTrialN,loop.thisN,loop.thisIndex,thisRow.t,notes,guide.started,instructions.started,ins_resp.started,guide.stopped,ins_resp.keys,ins_resp.rt,ins_resp.duration,guide_2.started,text.started,key_resp_2.started,guide_2.stopped,key_resp_2.keys,key_resp_2.rt,key_resp_2.duration,trial.started,fixation.started,image.started,key_resp.started,fixation.stopped,image.stopped,trial.stopped,loop.key_resp.keys,loop.key_resp.corr,key_resp.stopped,loop.key_resp.rt,loop.key_resp.duration,participant,session,date,expName,psychopyVersion,frameRate,expStart,
,,,,,,,,,,,,,,,0.0033716000034473836,0.008261599985416979,0.008261599985416979,17.782630000001518,space,17.755510899994988,None,,,,,,,,,,,,,,,,,,,,K49,116,2025-04-05_19h18.08.401,416_EXPERIMENT_PSYCHOPY_AU2220019_AU2220225,2024.2.4,60.04999762773614,2025-04-05 19h20.23.299511 +0530,
,,,,,,,,,,,,,,,,,,,,,,17.782717800000682,17.78883350000251,17.78883350000251,21.00672529998701,space,3.213778100005584,None,,,,,,,,,,,,,K49,116,2025-04-05_19h18.08.401,416_EXPERIMENT_PSYCHOPY_AU2220019_AU2220225,2024.2.4,60.04999762773614,2025-04-05 19h20.23.299511 +0530,
surprise.jpg,s,0,0,0,None,0,,,0,0,0,1,21.1254387999943,,,,,,,,,,,,,,,,21.119093699991936,21.1254387999943,22.520555399998557,22.520555399998557,22.626497199991718,23.025339299987536,23.25951289999648,None,0,,,,K49,116,2025-04-05_19h18.08.401,416_EXPERIMENT_PSYCHOPY_AU2220019_AU2220225,2024.2.4,60.04999762773614,2025-04-05 19h20.23.299511 +0530,
fear.jpg,f,1,1,0,None,0,,,0,1,1,0,23.279584600008093,,,,,,,,,,,,,,,,23.27501129999291,23.279584600008093,24.760028299991973,24.760028299991973,24.79298500000732,25.259292100003222,25.49419100000523,None,0,25.5119916999829,,,K49,116,2025-04-05_19h18.08.401,416_EXPERIMENT_PSYCHOPY_AU2220019_AU2220225,2024.2.4,60.04999762773614,2025-04-05 19h20.23.299511 +0530,
surprise_upper_blur.jpg,s,2,2,0,None,0,,,0,2,2,4,25.5119916999829,,,,,,,,,,,,,,,,25.507208099996205,25.5119916999829,27.009781500004465,27.009781500004465,27.0261354999966,27.508949100010796,27.743932799989125,None,0,27.760558100009803,,,K49,116,2025-04-05_19h18.08.401,416_EXPERIMENT_PSYCHOPY_AU2220019_AU2220225,2024.2.4,60.04999762773614,2025-04-05 19h20.23.299511 +0530,
surprise_lower_blur.jpg,s,3,3,0,None,0,,,0,3,3,5,27.760558100009803,,,,,,,,,,,,,,,,27.756661099992925,27.760558100009803,29.25947799999267,29.25947799999267,29.275632999982918,29.759443599992665,29.99381749998429,None,0,30.011989799997536,,,K49,116,2025-04-05_19h18.08.401,416_EXPERIMENT_PSYCHOPY_AU2220019_AU2220225,2024.2.4,60.04999762773614,2025-04-05 19h20.23.299511 +0530,
fear_lower_blur.jpg,f,4,4,0,None,0,,,0,4,4,3,30.011989799997536,,,,,,,,,,,,,,,,30.007551799993962,30.011989799997536,31.509543099993607,31.509543099993607,31.52654839999741,32.00889769999776,32.24397989999852,None,0,32.261992799991276,,,K49,116,2025-04-05_19h18.08.401,416_EXPERIMENT_PSYCHOPY_AU2220019_AU2220225,2024.2.4,60.04999762773614,2025-04-05 19h20.23.299511 +0530,
fear_upper_blur.jpg,f,5,5,0,None,0,,,0,5,5,2,32.261992799991276,,,,,,,,,,,,,,,,32.25740400000359,32.261992799991276,33.75907480000751,33.75907480000751,33.775816999987,34.25933359999908,34.49408129998483,None,0,34.51118969998788,,,K49,116,2025-04-05_19h18.08.401,416_EXPERIMENT_PSYCHOPY_AU2220019_AU2220225,2024.2.4,60.04999762773614,2025-04-05 19h20.23.299511 +0530,
fear_upper_blur.jpg,f,6,0,1,s,0,0.6921738999953959,None,1,0,6,2,34.51118969998788,,,,,,,,,,,,,,,,34.50665269998717,34.51118969998788,36.0095112999843,36.0095112999843,36.02631149999797,36.50937019998673,36.710691099986434,s,0,,0.6921738999953959,None,K49,116,2025-04-05_19h18.08.401,416_EXPERIMENT_PSYCHOPY_AU2220019_AU2220225,2024.2.4,60.04999762773614,2025-04-05 19h20.23.299511 +0530,
fear_lower_blur.jpg,f,7,1,1,None,0,,,1,1,7,3,36.729888600006234,,,,,,,,,,,,,,,,36.723960300005274,36.729888600006234,38.22624439999345,38.22624439999345,38.243013600003906,38.72550189998583,38.96040000001085,None,0,38.97859509999398,,,K49,116,2025-04-05_19h18.08.401,416_EXPERIMENT_PSYCHOPY_AU2220019_AU2220225,2024.2.4,60.04999762773614,2025-04-05 19h20.23.299511 +0530,
surprise_upper_blur.jpg,s,8,2,1,None,0,,,1,2,8,4,38.97859509999398,,,,,,,,,,,,,,,,38.97444769999129,38.97859509999398,40.47529519998352,40.47529519998352,40.492136799992295,40.97611200000392,41.20908820000477,None,0,41.22556560000521,,,K49,116,2025-04-05_19h18.08.401,416_EXPERIMENT_PSYCHOPY_AU2220019_AU2220225,2024.2.4,60.04999762773614,2025-04-05 19h20.23.299511 +0530,
fear.jpg,f,9,3,1,f,1,0.5898802999872714,None,1,3,9,0,41.22556560000521,,,,,,,,,,,,,,,,41.222028799995314,41.22556560000521,42.72604899998987,42.72604899998987,42.72604899998987,43.22598359998665,43.32718009999371,f,1,,0.5898802999872714,None,K49,116,2025-04-05_19h18.08.401,416_EXPERIMENT_PSYCHOPY_AU2220019_AU2220225,2024.2.4,60.04999762773614,2025-04-05 19h20.23.299511 +0530,
surprise_lower_blur.jpg,s,10,4,1,None,0,,,1,4,10,5,43.34452089999104,,,,,,,,,,,,,,,,43.33974699999089,43.34452089999104,44.84318809999968,44.84318809999968,44.859444200003054,45.342548199987505,45.57746629999019,None,0,45.5965370000049,,,K49,116,2025-04-05_19h18.08.401,416_EXPERIMENT_PSYCHOPY_AU2220019_AU2220225,2024.2.4,60.04999762773614,2025-04-05 19h20.23.299511 +0530,
surprise.jpg,s,11,5,1,None,0,,,1,5,11,1,45.5965370000049,,,,,,,,,,,,,,,,45.5917947999842,45.5965370000049,47.07600959998672,47.07600959998672,47.10981339999125,47.575889700005064,47.81064740000875,None,0,47.828780699986964,,,K49,116,2025-04-05_19h18.08.401,416_EXPERIMENT_PSYCHOPY_AU2220019_AU2220225,2024.2.4,60.04999762773614,2025-04-05 19h20.23.299511 +0530,
fear_lower_blur.jpg,f,12,0,2,None,0,,,2,0,12,3,47.828780699986964,,,,,,,,,,,,,,,,47.82452540000668,47.84239869998419,49.32666120000067,49.32666120000067,49.34218119998695,49.82557799998904,50.07742250000592,None,0,50.09473389998311,,,K49,116,2025-04-05_19h18.08.401,416_EXPERIMENT_PSYCHOPY_AU2220019_AU2220225,2024.2.4,60.04999762773614,2025-04-05 19h20.23.299511 +0530,
surprise_lower_blur.jpg,s,13,1,2,s,1,0.708212800003821,None,2,1,13,5,50.09473389998311,,,,,,,,,,,,,,,,50.09082169999601,50.09473389998311,51.59313039999688,51.59313039999688,51.60951609999756,52.09203780000098,52.311300200002734,s,1,,0.708212800003821,None,K49,116,2025-04-05_19h18.08.401,416_EXPERIMENT_PSYCHOPY_AU2220019_AU2220225,2024.2.4,60.04999762773614,2025-04-05 19h20.23.299511 +0530,
fear.jpg,f,14,2,2,None,0,,,2,2,14,0,52.32974600000307,,,,,,,,,,,,,,,,52.324730599997565,52.32974600000307,53.82535959998495,53.82535959998495,53.84229800000321,54.32529639999848,54.56108720001066,None,0,54.57924419999472,,,K49,116,2025-04-05_19h18.08.401,416_EXPERIMENT_PSYCHOPY_AU2220019_AU2220225,2024.2.4,60.04999762773614,2025-04-05 19h20.23.299511 +0530,
fear_upper_blur.jpg,f,15,3,2,None,0,,,2,3,15,2,54.57924419999472,,,,,,,,,,,,,,,,54.57478150000679,54.57924419999472,56.076429599983385,56.076429599983385,56.092442099994514,56.57570129999658,56.80951520000235,None,0,56.82798529998399,,,K49,116,2025-04-05_19h18.08.401,416_EXPERIMENT_PSYCHOPY_AU2220019_AU2220225,2024.2.4,60.04999762773614,2025-04-05 19h20.23.299511 +0530,
surprise_upper_blur.jpg,s,16,4,2,None,0,,,2,4,16,4,56.82798529998399,,,,,,,,,,,,,,,,56.824049499991816,56.82798529998399,58.325778600003105,58.325778600003105,58.34235349998926,58.8255428999837,59.06079879999743,None,0,59.079647100006696,,,K49,116,2025-04-05_19h18.08.401,416_EXPERIMENT_PSYCHOPY_AU2220019_AU2220225,2024.2.4,60.04999762773614,2025-04-05 19h20.23.299511 +0530,
surprise.jpg,s,17,5,2,None,0,,,2,5,17,1,59.079647100006696,,,,,,,,,,,,,,,,59.07571390000521,59.079647100006696,60.57681470000534,60.57681470000534,60.592857000010554,61.0755428999837,61.31056429998716,None,0,61.32901680000941,,,K49,116,2025-04-05_19h18.08.401,416_EXPERIMENT_PSYCHOPY_AU2220019_AU2220225,2024.2.4,60.04999762773614,2025-04-05 19h20.23.299511 +0530,
surprise_lower_blur.jpg,s,18,0,3,None,0,,,3,0,18,5,61.32901680000941,,,,,,,,,,,,,,,,61.324761700001545,61.32901680000941,62.826740799995605,62.826740799995605,62.842728399991756,63.326574899983825,63.56052609998733,None,0,63.5775456999836,,,K49,116,2025-04-05_19h18.08.401,416_EXPERIMENT_PSYCHOPY_AU2220019_AU2220225,2024.2.4,60.04999762773614,2025-04-05 19h20.23.299511 +0530,
fear_upper_blur.jpg,f,19,1,3,None,0,,,3,1,19,2,63.5775456999836,,,,,,,,,,,,,,,,63.57372079999186,63.5775456999836,65.07662219999474,65.07662219999474,65.09263599998667,65.57638769998448,65.81117880000966,None,0,65.82838930000435,,,K49,116,2025-04-05_19h18.08.401,416_EXPERIMENT_PSYCHOPY_AU2220019_AU2220225,2024.2.4,60.04999762773614,2025-04-05 19h20.23.299511 +0530,
fear.jpg,f,20,2,3,None,0,,,3,2,20,0,65.82838930000435,,,,,,,,,,,,,,,,65.82447580000735,65.82838930000435,67.3263403000019,67.3263403000019,67.3431142999907,67.82601719998638,68.06064479998895,None,0,68.07907879998675,,,K49,116,2025-04-05_19h18.08.401,416_EXPERIMENT_PSYCHOPY_AU2220019_AU2220225,2024.2.4,60.04999762773614,2025-04-05 19h20.23.299511 +0530,
surprise.jpg,s,21,3,3,None,0,,,3,3,21,1,68.07907879998675,,,,,,,,,,,,,,,,68.07527909998316,68.07907879998675,69.57706400001189,69.57706400001189,69.59274449999793,70.07535540001118,70.32637369999429,None,0,,,,K49,116,2025-04-05_19h18.08.401,416_EXPERIMENT_PSYCHOPY_AU2220019_AU2220225,2024.2.4,60.04999762773614,2025-04-05 19h20.23.299511 +0530,
fear_lower_blur.jpg,f,22,4,3,s,0,0.469667199999094,None,3,4,22,3,70.34495219998644,,,,,,,,,,,,,,,,70.34004650000134,70.34495219998644,71.82658779999474,71.82658779999474,71.85992310001166,72.32908440000028,72.3119369999913,s,0,,0.469667199999094,None,K49,116,2025-04-05_19h18.08.401,416_EXPERIMENT_PSYCHOPY_AU2220019_AU2220225,2024.2.4,60.04999762773614,2025-04-05 19h20.23.299511 +0530,
surprise_upper_blur.jpg,s,23,5,3,None,0,,,3,5,23,4,72.32908440000028,,,,,,,,,,,,,,,,72.32429099999717,72.32908440000028,73.8260595999891,73.8260595999891,73.8427570000058,74.32562729998608,74.56083000000217,None,0,74.57933730000514,,,K49,116,2025-04-05_19h18.08.401,416_EXPERIMENT_PSYCHOPY_AU2220019_AU2220225,2024.2.4,60.04999762773614,2025-04-05 19h20.23.299511 +0530,
surprise.jpg,s,24,0,4,s,1,0.6884328000014648,None,4,0,24,1,74.57933730000514,,,,,,,,,,,,,,,,74.57486130000325,74.57933730000514,76.07697930000722,76.07697930000722,76.09343909999006,76.57609560000128,76.77810379999573,s,1,,0.6884328000014648,None,K49,116,2025-04-05_19h18.08.401,416_EXPERIMENT_PSYCHOPY_AU2220019_AU2220225,2024.2.4,60.04999762773614,2025-04-05 19h20.23.299511 +0530,
fear_lower_blur.jpg,f,25,1,4,s,0,0.6967378999979701,None,4,1,25,3,76.79556510000839,,,,,,,,,,,,,,,,76.79076919998624,76.79556510000839,78.29316289999406,78.29316289999406,78.3095794999972,78.79209850000916,78.9947250999976,s,0,,0.6967378999979701,None,K49,116,2025-04-05_19h18.08.401,416_EXPERIMENT_PSYCHOPY_AU2220019_AU2220225,2024.2.4,60.04999762773614,2025-04-05 19h20.23.299511 +0530,
surprise_lower_blur.jpg,s,26,2,4,None,0,,,4,2,26,5,79.01194830000168,,,,,,,,,,,,,,,,79.00744690001011,79.01194830000168,80.51059339998756,80.51059339998756,80.52707159999409,81.00961489998735,81.26056500000414,None,0,,,,K49,116,2025-04-05_19h18.08.401,416_EXPERIMENT_PSYCHOPY_AU2220019_AU2220225,2024.2.4,60.04999762773614,2025-04-05 19h20.23.299511 +0530,
fear.jpg,f,27,3,4,None,0,,,4,3,27,0,81.2800556999864,,,,,,,,,,,,,,,,81.27502359999926,81.2800556999864,82.76066669999273,82.76066669999273,82.79340379999485,83.25924700000905,83.50856640000711,None,0,,,,K49,116,2025-04-05_19h18.08.401,416_EXPERIMENT_PSYCHOPY_AU2220019_AU2220225,2024.2.4,60.04999762773614,2025-04-05 19h20.23.299511 +0530,
surprise_upper_blur.jpg,s,28,4,4,None,0,,,4,4,28,4,83.52557120000711,,,,,,,,,,,,,,,,83.52087159999064,83.52557120000711,85.0102634000068,85.0102634000068,85.02682169998297,85.50956060001045,85.7443263999885,None,0,85.76189719999093,,,K49,116,2025-04-05_19h18.08.401,416_EXPERIMENT_PSYCHOPY_AU2220019_AU2220225,2024.2.4,60.04999762773614,2025-04-05 19h20.23.299511 +0530,
fear_upper_blur.jpg,f,29,5,4,f,1,0.7003662000061013,None,4,5,29,2,85.76189719999093,,,,,,,,,,,,,,,,85.75737469998421,85.76189719999093,87.26007709998521,87.26007709998521,87.27597960000276,87.75934489999781,87.96764250000706,f,1,,0.7003662000061013,None,K49,116,2025-04-05_19h18.08.401,416_EXPERIMENT_PSYCHOPY_AU2220019_AU2220225,2024.2.4,60.04999762773614,2025-04-05 19h20.23.299511 +0530,
surprise_lower_blur.jpg,s,30,0,5,None,0,,,5,0,30,5,88.00075459998334,,,,,,,,,,,,,,,,87.99106530001154,88.00075459998334,89.47665960001177,89.47665960001177,89.51022419999936,89.97633529998711,90.21114130000933,None,0,90.22835409999243,,,K49,116,2025-04-05_19h18.08.401,416_EXPERIMENT_PSYCHOPY_AU2220019_AU2220225,2024.2.4,60.04999762773614,2025-04-05 19h20.23.299511 +0530,
fear_upper_blur.jpg,f,31,1,5,f,1,0.6437657999922521,None,5,1,31,2,90.22835409999243,,,,,,,,,,,,,,,,90.22386040000129,90.22835409999243,91.7269215999986,91.7269215999986,91.7436488000094,92.22660409999662,92.38217249998706,f,1,,0.6437657999922521,None,K49,116,2025-04-05_19h18.08.401,416_EXPERIMENT_PSYCHOPY_AU2220019_AU2220225,2024.2.4,60.04999762773614,2025-04-05 19h20.23.299511 +0530,
fear_lower_blur.jpg,f,32,2,5,s,0,0.4717798999918159,None,5,2,32,3,92.40282759998809,,,,,,,,,,,,,,,,92.39642070000991,92.40282759998809,93.89373750000959,93.89373750000959,93.91026070000953,,94.37867820000974,s,0,,0.4717798999918159,None,K49,116,2025-04-05_19h18.08.401,416_EXPERIMENT_PSYCHOPY_AU2220019_AU2220225,2024.2.4,60.04999762773614,2025-04-05 19h20.23.299511 +0530,
fear.jpg,f,33,3,5,f,1,0.48444780000136234,None,5,3,33,0,94.39717240000027,,,,,,,,,,,,,,,,94.39211270000669,94.39717240000027,95.89364600001136,95.89364600001136,95.9104856000049,96.40010359999724,96.3812717999972,f,1,,0.48444780000136234,None,K49,116,2025-04-05_19h18.08.401,416_EXPERIMENT_PSYCHOPY_AU2220019_AU2220225,2024.2.4,60.04999762773614,2025-04-05 19h20.23.299511 +0530,
surprise.jpg,s,34,4,5,f,0,0.4929744999972172,None,5,4,34,1,96.40010359999724,,,,,,,,,,,,,,,,96.39472620000015,96.40010359999724,97.89330550000886,97.89330550000886,97.90966790000675,98.39312540000537,98.39858189999359,f,0,,0.4929744999972172,None,K49,116,2025-04-05_19h18.08.401,416_EXPERIMENT_PSYCHOPY_AU2220019_AU2220225,2024.2.4,60.04999762773614,2025-04-05 19h20.23.299511 +0530,
surprise_upper_blur.jpg,s,35,5,5,None,0,,,5,5,35,4,98.4382947999984,,,,,,,,,,,,,,,,98.42696609999985,98.4382947999984,99.9104023000109,99.9104023000109,99.9433449000062,100.42559939998318,100.65957329998491,None,0,,,,K49,116,2025-04-05_19h18.08.401,416_EXPERIMENT_PSYCHOPY_AU2220019_AU2220225,2024.2.4,60.04999762773614,2025-04-05 19h20.23.299511 +0530,
surprise_lower_blur.jpg,s,36,0,6,None,0,,,6,0,36,5,100.67802669998491,,,,,,,,,,,,,,,,100.67365489999065,100.67802669998491,102.16011550000985,102.16011550000985,102.19295279998914,102.66018259999692,102.8944557000068,None,0,102.91414439998334,,,K49,116,2025-04-05_19h18.08.401,416_EXPERIMENT_PSYCHOPY_AU2220019_AU2220225,2024.2.4,60.04999762773614,2025-04-05 19h20.23.299511 +0530,
surprise.jpg,s,37,1,6,None,0,,,6,1,37,1,102.91414439998334,,,,,,,,,,,,,,,,102.9093850000063,102.91414439998334,104.41022799999337,104.41022799999337,104.42677739998908,104.90974209998967,105.1444279999996,None,0,105.15981399998418,,,K49,116,2025-04-05_19h18.08.401,416_EXPERIMENT_PSYCHOPY_AU2220019_AU2220225,2024.2.4,60.04999762773614,2025-04-05 19h20.23.299511 +0530,
fear_lower_blur.jpg,f,38,2,6,f,1,0.6918942999909632,None,6,2,38,3,105.15981399998418,,,,,,,,,,,,,,,,105.1552313999855,105.15981399998418,106.6604287000082,106.6604287000082,106.6604287000082,107.15913730001193,107.36604429999716,f,1,,0.6918942999909632,None,K49,116,2025-04-05_19h18.08.401,416_EXPERIMENT_PSYCHOPY_AU2220019_AU2220225,2024.2.4,60.04999762773614,2025-04-05 19h20.23.299511 +0530,
fear_upper_blur.jpg,f,39,3,6,f,1,0.6229596000048332,None,6,3,39,2,107.39520500000799,,,,,,,,,,,,,,,,107.38867369998479,107.39520500000799,108.87738180000451,108.87738180000451,108.90988799999468,109.37646840000525,109.5133450999856,f,1,,0.6229596000048332,None,K49,116,2025-04-05_19h18.08.401,416_EXPERIMENT_PSYCHOPY_AU2220019_AU2220225,2024.2.4,60.04999762773614,2025-04-05 19h20.23.299511 +0530,
fear.jpg,f,40,4,6,f,1,0.37542570001096465,None,6,4,40,0,109.54192560000229,,,,,,,,,,,,,,,,109.5321311999869,109.54192560000229,111.02662039999268,111.02662039999268,111.04243440000573,,111.41847969999071,f,1,,0.37542570001096465,None,K49,116,2025-04-05_19h18.08.401,416_EXPERIMENT_PSYCHOPY_AU2220019_AU2220225,2024.2.4,60.04999762773614,2025-04-05 19h20.23.299511 +0530,
surprise_upper_blur.jpg,s,41,5,6,f,0,0.4191972999833524,None,6,5,41,4,111.44072169999708,,,,,,,,,,,,,,,,111.43477279998478,111.44072169999708,112.92586970000411,112.92586970000411,112.94315929998993,,113.35567819999414,f,0,,0.4191972999833524,None,K49,116,2025-04-05_19h18.08.401,416_EXPERIMENT_PSYCHOPY_AU2220019_AU2220225,2024.2.4,60.04999762773614,2025-04-05 19h20.23.299511 +0530,
fear_lower_blur.jpg,f,42,0,7,s,0,0.43416120001347736,None,7,0,42,3,113.3873309000046,,,,,,,,,,,,,,,,113.38127290000557,113.3873309000046,114.85992329998408,114.85992329998408,114.8930321999942,,115.29791659998591,s,0,,0.43416120001347736,None,K49,116,2025-04-05_19h18.08.401,416_EXPERIMENT_PSYCHOPY_AU2220019_AU2220225,2024.2.4,60.04999762773614,2025-04-05 19h20.23.299511 +0530,
fear.jpg,f,43,1,7,None,0,,,7,1,43,0,115.31784559998778,,,,,,,,,,,,,,,,115.31317199999467,115.31784559998778,116.80991069998709,116.80991069998709,116.82648530000006,117.3084755000018,117.54430549999233,None,0,117.56211999998777,,,K49,116,2025-04-05_19h18.08.401,416_EXPERIMENT_PSYCHOPY_AU2220019_AU2220225,2024.2.4,60.04999762773614,2025-04-05 19h20.23.299511 +0530,
surprise_upper_blur.jpg,s,44,2,7,None,0,,,7,2,44,4,117.56211999998777,,,,,,,,,,,,,,,,117.55739370000083,117.56211999998777,119.05971979998867,119.05971979998867,119.0763226999843,119.55925960000604,119.79440360001172,None,0,119.81399689998943,,,K49,116,2025-04-05_19h18.08.401,416_EXPERIMENT_PSYCHOPY_AU2220019_AU2220225,2024.2.4,60.04999762773614,2025-04-05 19h20.23.299511 +0530,
surprise_lower_blur.jpg,s,45,3,7,None,0,,,7,3,45,5,119.81399689998943,,,,,,,,,,,,,,,,119.80975769998622,119.81399689998943,121.30993290001061,121.30993290001061,121.32714499998838,121.80944429998635,122.04508219999843,None,0,122.06253580001066,,,K49,116,2025-04-05_19h18.08.401,416_EXPERIMENT_PSYCHOPY_AU2220019_AU2220225,2024.2.4,60.04999762773614,2025-04-05 19h20.23.299511 +0530,
fear_upper_blur.jpg,f,46,4,7,None,0,,,7,4,46,2,122.06253580001066,,,,,,,,,,,,,,,,122.05841369999689,122.06253580001066,123.55941929999972,123.55941929999972,123.57604879999417,124.05878870000015,124.29436359999818,None,0,124.31595729998662,,,K49,116,2025-04-05_19h18.08.401,416_EXPERIMENT_PSYCHOPY_AU2220019_AU2220225,2024.2.4,60.04999762773614,2025-04-05 19h20.23.299511 +0530,
surprise.jpg,s,47,5,7,s,1,0.5640378999814857,None,7,5,47,1,124.31595729998662,,,,,,,,,,,,,,,,124.3083265000023,124.31595729998662,125.80965939999442,125.80965939999442,125.82683119998546,126.30928929999936,126.37857539998367,s,1,,0.5640378999814857,None,K49,116,2025-04-05_19h18.08.401,416_EXPERIMENT_PSYCHOPY_AU2220019_AU2220225,2024.2.4,60.04999762773614,2025-04-05 19h20.23.299511 +0530,
fear_upper_blur.jpg,f,48,0,8,f,1,0.4824115000083111,None,8,0,48,2,126.39329159999033,,,,,,,,,,,,,,,,126.38832339999499,126.39329159999033,127.8767058000085,127.8767058000085,127.8950443000067,128.39885530000902,128.36740620000637,f,1,,0.4824115000083111,None,K49,116,2025-04-05_19h18.08.401,416_EXPERIMENT_PSYCHOPY_AU2220019_AU2220225,2024.2.4,60.04999762773614,2025-04-05 19h20.23.299511 +0530,
surprise_lower_blur.jpg,s,49,1,8,s,1,0.5533468000066932,None,8,1,49,5,128.39885530000902,,,,,,,,,,,,,,,,128.3891852000088,128.39885530000902,129.87659410000197,129.87659410000197,129.90958509998745,130.3762587000092,130.43711749999784,s,1,,0.5533468000066932,None,K49,116,2025-04-05_19h18.08.401,416_EXPERIMENT_PSYCHOPY_AU2220019_AU2220225,2024.2.4,60.04999762773614,2025-04-05 19h20.23.299511 +0530,
surprise.jpg,s,50,2,8,f,0,0.6020788000023458,None,8,2,50,1,130.46521729999222,,,,,,,,,,,,,,,,130.45862759999,130.46521729999222,131.9436452999944,131.9436452999944,131.9766745000088,132.44242159998976,132.56615979998605,f,0,,0.6020788000023458,None,K49,116,2025-04-05_19h18.08.401,416_EXPERIMENT_PSYCHOPY_AU2220019_AU2220225,2024.2.4,60.04999762773614,2025-04-05 19h20.23.299511 +0530,
fear_lower_blur.jpg,f,51,3,8,s,0,0.3467711999837775,None,8,3,51,3,132.5927029000013,,,,,,,,,,,,,,,,132.58699429998524,132.5927029000013,134.07713419999345,134.07713419999345,134.09273420000682,,134.43210249999538,s,0,,0.3467711999837775,None,K49,116,2025-04-05_19h18.08.401,416_EXPERIMENT_PSYCHOPY_AU2220019_AU2220225,2024.2.4,60.04999762773614,2025-04-05 19h20.23.299511 +0530,
fear.jpg,f,52,4,8,f,1,0.37919080001302063,None,8,4,52,0,134.4686870999867,,,,,,,,,,,,,,,,134.4569865000085,134.4686870999867,135.94334530000924,135.94334530000924,135.97610060000443,,136.3315600999922,f,1,,0.37919080001302063,None,K49,116,2025-04-05_19h18.08.401,416_EXPERIMENT_PSYCHOPY_AU2220019_AU2220225,2024.2.4,60.04999762773614,2025-04-05 19h20.23.299511 +0530,
surprise_upper_blur.jpg,s,53,5,8,s,1,0.47660339999129064,None,8,5,53,4,136.36187210000935,,,,,,,,,,,,,,,,136.35133539998787,136.36187210000935,137.84399210000993,137.84399210000993,137.87650569999823,,138.32859940000344,s,1,,0.47660339999129064,None,K49,116,2025-04-05_19h18.08.401,416_EXPERIMENT_PSYCHOPY_AU2220019_AU2220225,2024.2.4,60.04999762773614,2025-04-05 19h20.23.299511 +0530,
surprise_upper_blur.jpg,s,54,0,9,s,1,0.6762993000156712,None,9,0,54,4,138.34822409998742,,,,,,,,,,,,,,,,138.3425326999859,138.34822409998742,139.84304869998596,139.84304869998596,139.85987300000852,140.34221919998527,140.52805709998938,s,1,,0.6762993000156712,None,K49,116,2025-04-05_19h18.08.401,416_EXPERIMENT_PSYCHOPY_AU2220019_AU2220225,2024.2.4,60.04999762773614,2025-04-05 19h20.23.299511 +0530,
surprise.jpg,s,55,1,9,s,1,0.3989298999949824,None,9,1,55,1,140.56804549999651,,,,,,,,,,,,,,,,140.5555541999929,140.56804549999651,142.04331010000897,142.04331010000897,142.07709050000994,,142.44989240000723,s,1,,0.3989298999949824,None,K49,116,2025-04-05_19h18.08.401,416_EXPERIMENT_PSYCHOPY_AU2220019_AU2220225,2024.2.4,60.04999762773614,2025-04-05 19h20.23.299511 +0530,
fear_lower_blur.jpg,f,56,2,9,None,0,,,9,2,56,3,142.48496020000312,,,,,,,,,,,,,,,,142.4763074000075,142.48496020000312,143.9603558999952,143.9603558999952,143.99391409999225,144.45923750000657,144.698292999994,None,0,144.73847720000776,,,K49,116,2025-04-05_19h18.08.401,416_EXPERIMENT_PSYCHOPY_AU2220019_AU2220225,2024.2.4,60.04999762773614,2025-04-05 19h20.23.299511 +0530,
fear.jpg,f,57,3,9,None,0,,,9,3,57,0,144.73847720000776,,,,,,,,,,,,,,,,144.7270304999838,144.73847720000776,146.2100487999851,146.2100487999851,146.24312440000358,146.7096925000078,146.95908919998328,None,0,,,,K49,116,2025-04-05_19h18.08.401,416_EXPERIMENT_PSYCHOPY_AU2220019_AU2220225,2024.2.4,60.04999762773614,2025-04-05 19h20.23.299511 +0530,
fear_upper_blur.jpg,f,58,4,9,f,1,0.5959488999797031,None,9,4,58,2,146.975202600006,,,,,,,,,,,,,,,,146.96910759998718,146.975202600006,148.46025659999577,148.46025659999577,148.47648779998417,148.96016119999695,149.06447939999634,f,1,,0.5959488999797031,None,K49,116,2025-04-05_19h18.08.401,416_EXPERIMENT_PSYCHOPY_AU2220019_AU2220225,2024.2.4,60.04999762773614,2025-04-05 19h20.23.299511 +0530,
surprise_lower_blur.jpg,s,59,5,9,s,1,0.63582480000332,None,9,5,59,5,149.10084699999425,,,,,,,,,,,,,,,,149.09111660000053,149.10084699999425,150.57728530000895,150.57728530000895,150.61022770000272,151.0918115999957,151.22639759999583,s,1,,0.63582480000332,None,K49,116,2025-04-05_19h18.08.401,416_EXPERIMENT_PSYCHOPY_AU2220019_AU2220225,2024.2.4,60.04999762773614,2025-04-05 19h20.23.299511 +0530,
surprise_lower_blur.jpg,s,60,0,10,f,0,0.3479607999906875,None,10,0,60,5,151.24407779998728,,,,,,,,,,,,,,,,151.23914309998509,151.24407779998728,152.72667850001017,152.72667850001017,152.74284089999855,,153.08235159999458,f,0,,0.3479607999906875,None,K49,116,2025-04-05_19h18.08.401,416_EXPERIMENT_PSYCHOPY_AU2220019_AU2220225,2024.2.4,60.04999762773614,2025-04-05 19h20.23.299511 +0530,
fear.jpg,f,61,1,10,f,1,0.4200313999899663,None,10,1,61,0,153.11069870000938,,,,,,,,,,,,,,,,153.10215669998433,153.11069870000938,154.59355739998864,154.59355739998864,154.60939759999746,,155.03272329998435,f,1,,0.4200313999899663,None,K49,116,2025-04-05_19h18.08.401,416_EXPERIMENT_PSYCHOPY_AU2220019_AU2220225,2024.2.4,60.04999762773614,2025-04-05 19h20.23.299511 +0530,
surprise.jpg,s,62,2,10,f,0,0.5711859999864828,None,10,2,62,1,155.06800840000506,,,,,,,,,,,,,,,,155.05854969998472,155.06800840000506,156.5432717000076,156.5432717000076,156.5772474000114,157.0424507999851,157.1277504999889,f,0,,0.5711859999864828,None,K49,116,2025-04-05_19h18.08.401,416_EXPERIMENT_PSYCHOPY_AU2220019_AU2220225,2024.2.4,60.04999762773614,2025-04-05 19h20.23.299511 +0530,
fear_lower_blur.jpg,f,63,3,10,None,0,,,10,3,63,3,157.14565069999662,,,,,,,,,,,,,,,,157.14044550000108,157.14565069999662,158.643871999986,158.643871999986,158.6595171999943,159.16011399999843,159.39333339998848,None,0,,,,K49,116,2025-04-05_19h18.08.401,416_EXPERIMENT_PSYCHOPY_AU2220019_AU2220225,2024.2.4,60.04999762773614,2025-04-05 19h20.23.299511 +0530,
fear_upper_blur.jpg,f,64,4,10,None,0,,,10,4,64,2,159.40981879999163,,,,,,,,,,,,,,,,159.40556509999442,159.40981879999163,160.89339899999322,160.89339899999322,160.90997700000298,161.39311929998803,161.6274110999948,None,0,161.64448899999843,,,K49,116,2025-04-05_19h18.08.401,416_EXPERIMENT_PSYCHOPY_AU2220019_AU2220225,2024.2.4,60.04999762773614,2025-04-05 19h20.23.299511 +0530,
surprise_upper_blur.jpg,s,65,5,10,f,0,0.617676499998197,None,10,5,65,4,161.64448899999843,,,,,,,,,,,,,,,,161.6406524000049,161.64448899999843,163.14343979998375,163.14343979998375,163.16056570000364,163.64307210000698,163.77830509998603,f,0,,0.617676499998197,None,K49,116,2025-04-05_19h18.08.401,416_EXPERIMENT_PSYCHOPY_AU2220019_AU2220225,2024.2.4,60.04999762773614,2025-04-05 19h20.23.299511 +0530,
surprise.jpg,s,66,0,11,f,0,0.43050369998672977,None,11,0,66,1,163.79728890000843,,,,,,,,,,,,,,,,163.79328939999687,163.79728890000843,165.29342060000636,165.29342060000636,165.30957260000287,,165.72906519999378,f,0,,0.43050369998672977,None,K49,116,2025-04-05_19h18.08.401,416_EXPERIMENT_PSYCHOPY_AU2220019_AU2220225,2024.2.4,60.04999762773614,2025-04-05 19h20.23.299511 +0530,
fear_upper_blur.jpg,f,67,1,11,f,1,0.6975930000189692,None,11,1,67,2,165.7475029999914,,,,,,,,,,,,,,,,165.74241149998852,165.7475029999914,167.243630699988,167.243630699988,167.26072409999324,167.74334459999227,167.9484914999921,f,1,,0.6975930000189692,None,K49,116,2025-04-05_19h18.08.401,416_EXPERIMENT_PSYCHOPY_AU2220019_AU2220225,2024.2.4,60.04999762773614,2025-04-05 19h20.23.299511 +0530,
fear_lower_blur.jpg,f,68,2,11,s,0,0.4821140000130981,None,11,2,68,3,167.97486749998643,,,,,,,,,,,,,,,,167.96635589998914,167.97486749998643,169.4604027000023,169.4604027000023,169.47646000000532,169.9661749000079,169.94712789999903,s,0,,0.4821140000130981,None,K49,116,2025-04-05_19h18.08.401,416_EXPERIMENT_PSYCHOPY_AU2220019_AU2220225,2024.2.4,60.04999762773614,2025-04-05 19h20.23.299511 +0530,
surprise_lower_blur.jpg,s,69,3,11,None,0,,,11,3,69,5,169.9661749000079,,,,,,,,,,,,,,,,169.9600281000021,169.9661749000079,171.45958480000263,171.45958480000263,171.47691480000503,171.9592294000031,172.1939984000055,None,0,172.21177520000492,,,K49,116,2025-04-05_19h18.08.401,416_EXPERIMENT_PSYCHOPY_AU2220019_AU2220225,2024.2.4,60.04999762773614,2025-04-05 19h20.23.299511 +0530,
fear.jpg,f,70,4,11,None,0,,,11,4,70,0,172.21177520000492,,,,,,,,,,,,,,,,172.20724889999838,172.21177520000492,173.70959849999053,173.70959849999053,173.72627459999057,174.20881549999467,174.44471189999604,None,0,174.46189909998793,,,K49,116,2025-04-05_19h18.08.401,416_EXPERIMENT_PSYCHOPY_AU2220019_AU2220225,2024.2.4,60.04999762773614,2025-04-05 19h20.23.299511 +0530,
surprise_upper_blur.jpg,s,71,5,11,f,0,0.4986561999830883,None,11,5,71,4,174.46189909998793,,,,,,,,,,,,,,,,174.45772999999463,174.46189909998793,175.95962129998952,175.95962129998952,175.976450999995,176.45898520000628,176.4621816999861,f,0,,0.4986561999830883,None,K49,116,2025-04-05_19h18.08.401,416_EXPERIMENT_PSYCHOPY_AU2220019_AU2220225,2024.2.4,60.04999762773614,2025-04-05 19h20.23.299511 +0530,
fear.jpg,f,72,0,12,None,0,,,12,0,72,0,176.48184709998895,,,,,,,,,,,,,,,,176.47669879999012,176.48184709998895,177.97683559998404,177.97683559998404,177.99288479998359,178.4761423000018,178.72671889999765,None,0,,,,K49,116,2025-04-05_19h18.08.401,416_EXPERIMENT_PSYCHOPY_AU2220019_AU2220225,2024.2.4,60.04999762773614,2025-04-05 19h20.23.299511 +0530,
fear_upper_blur.jpg,f,73,1,12,None,0,,,12,1,73,2,178.74492880000616,,,,,,,,,,,,,,,,178.73997749999398,178.74492880000616,180.22584510000888,180.22584510000888,180.25911019998603,180.72576179998578,180.9606986999861,None,0,180.9785792999901,,,K49,116,2025-04-05_19h18.08.401,416_EXPERIMENT_PSYCHOPY_AU2220019_AU2220225,2024.2.4,60.04999762773614,2025-04-05 19h20.23.299511 +0530,
surprise_upper_blur.jpg,s,74,2,12,s,1,0.6254497000190895,None,12,2,74,4,180.9785792999901,,,,,,,,,,,,,,,,180.9742672999855,180.9785792999901,182.47675719999825,182.47675719999825,182.49326389998896,182.9759029999841,183.11034529999597,s,1,,0.6254497000190895,None,K49,116,2025-04-05_19h18.08.401,416_EXPERIMENT_PSYCHOPY_AU2220019_AU2220225,2024.2.4,60.04999762773614,2025-04-05 19h20.23.299511 +0530,
surprise_lower_blur.jpg,s,75,3,12,f,0,0.6554502999933902,None,12,3,75,5,183.1282801000052,,,,,,,,,,,,,,,,183.12322259999928,183.1282801000052,184.6263684000005,184.6263684000005,184.64303050001035,185.1256088000082,185.29504440000164,f,0,,0.6554502999933902,None,K49,116,2025-04-05_19h18.08.401,416_EXPERIMENT_PSYCHOPY_AU2220019_AU2220225,2024.2.4,60.04999762773614,2025-04-05 19h20.23.299511 +0530,
fear_lower_blur.jpg,f,76,4,12,None,0,,,12,4,76,3,185.3126951000013,,,,,,,,,,,,,,,,185.30798690000665,185.3126951000013,186.8105522999831,186.8105522999831,186.82645230001071,187.30930639998405,187.55971060000593,None,0,,,,K49,116,2025-04-05_19h18.08.401,416_EXPERIMENT_PSYCHOPY_AU2220019_AU2220225,2024.2.4,60.04999762773614,2025-04-05 19h20.23.299511 +0530,
surprise.jpg,s,77,5,12,s,1,0.5973788000119384,None,12,5,77,1,187.58061460001045,,,,,,,,,,,,,,,,187.57483050000155,187.58061460001045,189.05958790000295,189.05958790000295,189.09287269998458,189.55943339999067,189.66182259999914,s,1,,0.5973788000119384,None,K49,116,2025-04-05_19h18.08.401,416_EXPERIMENT_PSYCHOPY_AU2220019_AU2220225,2024.2.4,60.04999762773614,2025-04-05 19h20.23.299511 +0530,
surprise_lower_blur.jpg,s,78,0,13,f,0,0.6327732999925502,None,13,0,78,5,189.6800905999844,,,,,,,,,,,,,,,,189.67487690001144,189.6800905999844,191.17646270000841,191.17646270000841,191.19301310001174,191.6756306999887,191.81297540001106,f,0,,0.6327732999925502,None,K49,116,2025-04-05_19h18.08.401,416_EXPERIMENT_PSYCHOPY_AU2220019_AU2220225,2024.2.4,60.04999762773614,2025-04-05 19h20.23.299511 +0530,
surprise.jpg,s,79,1,13,None,0,,,13,1,79,1,191.833879599988,,,,,,,,,,,,,,,,191.8281386999879,191.833879599988,193.32650349999312,193.32650349999312,193.34292039999855,193.8257095000008,194.06164870000794,None,0,194.08092670000042,,,K49,116,2025-04-05_19h18.08.401,416_EXPERIMENT_PSYCHOPY_AU2220019_AU2220225,2024.2.4,60.04999762773614,2025-04-05 19h20.23.299511 +0530,
fear.jpg,f,80,2,13,f,1,0.5603394000208937,None,13,2,80,0,194.08092670000042,,,,,,,,,,,,,,,,194.07547089998843,194.08092670000042,195.57680089998757,195.57680089998757,195.5930359000049,196.07626410000375,196.14526339998702,f,1,,0.5603394000208937,None,K49,116,2025-04-05_19h18.08.401,416_EXPERIMENT_PSYCHOPY_AU2220019_AU2220225,2024.2.4,60.04999762773614,2025-04-05 19h20.23.299511 +0530,
fear_lower_blur.jpg,f,81,3,13,None,0,,,13,3,81,3,196.16465399999288,,,,,,,,,,,,,,,,196.15943510000943,196.16465399999288,197.65940609999234,197.65940609999234,197.67611959998612,198.15960019998602,198.39434689999325,None,0,198.41142799999216,,,K49,116,2025-04-05_19h18.08.401,416_EXPERIMENT_PSYCHOPY_AU2220019_AU2220225,2024.2.4,60.04999762773614,2025-04-05 19h20.23.299511 +0530,
surprise_upper_blur.jpg,s,82,4,13,None,0,,,13,4,82,4,198.41142799999216,,,,,,,,,,,,,,,,198.40730469999835,198.41142799999216,199.9099300999951,199.9099300999951,199.9268005999911,200.40946019999683,200.64553449998493,None,0,200.6638840000087,,,K49,116,2025-04-05_19h18.08.401,416_EXPERIMENT_PSYCHOPY_AU2220019_AU2220225,2024.2.4,60.04999762773614,2025-04-05 19h20.23.299511 +0530,
fear_upper_blur.jpg,f,83,5,13,f,1,0.6778082999808248,None,13,5,83,2,200.6638840000087,,,,,,,,,,,,,,,,200.65851139998995,200.6638840000087,202.16047999999137,202.16047999999137,202.17689679999603,202.65925239998614,202.84637909999583,f,1,,0.6778082999808248,None,K49,116,2025-04-05_19h18.08.401,416_EXPERIMENT_PSYCHOPY_AU2220019_AU2220225,2024.2.4,60.04999762773614,2025-04-05 19h20.23.299511 +0530,
fear_lower_blur.jpg,f,84,0,14,None,0,,,14,0,84,3,202.86562649998814,,,,,,,,,,,,,,,,202.86034179999842,202.86562649998814,204.36062649998348,204.36062649998348,204.37722150000627,204.85957929998403,205.11010299998452,None,0,,,,K49,116,2025-04-05_19h18.08.401,416_EXPERIMENT_PSYCHOPY_AU2220019_AU2220225,2024.2.4,60.04999762773614,2025-04-05 19h20.23.299511 +0530,
surprise_upper_blur.jpg,s,85,1,14,f,0,0.5658549999934621,None,14,1,85,4,205.1304400000081,,,,,,,,,,,,,,,,205.12489380000625,205.1304400000081,206.61092179999105,206.61092179999105,206.64398649998475,207.1093380000093,207.1808095999877,f,0,,0.5658549999934621,None,K49,116,2025-04-05_19h18.08.401,416_EXPERIMENT_PSYCHOPY_AU2220019_AU2220225,2024.2.4,60.04999762773614,2025-04-05 19h20.23.299511 +0530,
fear_upper_blur.jpg,f,86,2,14,None,0,,,14,2,86,2,207.19876559998374,,,,,,,,,,,,,,,,207.19367800001055,207.19876559998374,208.6933357999951,208.6933357999951,208.71021419999306,209.1933097000001,209.42832149998867,None,0,209.44823139999062,,,K49,116,2025-04-05_19h18.08.401,416_EXPERIMENT_PSYCHOPY_AU2220019_AU2220225,2024.2.4,60.04999762773614,2025-04-05 19h20.23.299511 +0530,
surprise.jpg,s,87,3,14,s,1,0.6667989999987185,None,14,3,87,1,209.44823139999062,,,,,,,,,,,,,,,,209.44335180000053,209.44823139999062,210.944374099985,210.944374099985,210.96018910000566,211.44278260000283,211.6283786999993,s,1,,0.6667989999987185,None,K49,116,2025-04-05_19h18.08.401,416_EXPERIMENT_PSYCHOPY_AU2220019_AU2220225,2024.2.4,60.04999762773614,2025-04-05 19h20.23.299511 +0530,
surprise_lower_blur.jpg,s,88,4,14,f,0,0.6686000000045169,None,14,4,88,5,211.645924499986,,,,,,,,,,,,,,,,211.64073889999418,211.645924499986,213.14378600000055,213.14378600000055,213.1602079999866,213.6430507999903,213.82955890000449,f,0,,0.6686000000045169,None,K49,116,2025-04-05_19h18.08.401,416_EXPERIMENT_PSYCHOPY_AU2220019_AU2220225,2024.2.4,60.04999762773614,2025-04-05 19h20.23.299511 +0530,
fear.jpg,f,89,5,14,None,0,,,14,5,89,0,213.8484412000107,,,,,,,,,,,,,,,,213.84260390000418,213.8484412000107,215.34397339998395,215.34397339998395,215.3601142000116,215.84291750000557,216.07797789998585,None,0,216.0960492999875,,,K49,116,2025-04-05_19h18.08.401,416_EXPERIMENT_PSYCHOPY_AU2220019_AU2220225,2024.2.4,60.04999762773614,2025-04-05 19h20.23.299511 +0530,
fear_lower_blur.jpg,f,90,0,15,None,0,,,15,0,90,3,216.0960492999875,,,,,,,,,,,,,,,,216.09129429998575,216.0960492999875,217.594024799997,217.594024799997,217.61022380000213,218.0931295999908,218.32844630000181,None,0,218.34564839999075,,,K49,116,2025-04-05_19h18.08.401,416_EXPERIMENT_PSYCHOPY_AU2220019_AU2220225,2024.2.4,60.04999762773614,2025-04-05 19h20.23.299511 +0530,
surprise_upper_blur.jpg,s,91,1,15,None,0,,,15,1,91,4,218.34564839999075,,,,,,,,,,,,,,,,218.34065140000894,218.34564839999075,219.84372689999873,219.84372689999873,219.86022010000306,220.3431666000106,220.5780897999939,None,0,220.59763309999835,,,K49,116,2025-04-05_19h18.08.401,416_EXPERIMENT_PSYCHOPY_AU2220019_AU2220225,2024.2.4,60.04999762773614,2025-04-05 19h20.23.299511 +0530,
surprise.jpg,s,92,2,15,None,0,,,15,2,92,1,220.59763309999835,,,,,,,,,,,,,,,,220.59193239998422,220.59763309999835,222.09373279998545,222.09373279998545,222.11042939999606,222.59396480000578,222.82800370000768,None,0,222.84719949998544,,,K49,116,2025-04-05_19h18.08.401,416_EXPERIMENT_PSYCHOPY_AU2220019_AU2220225,2024.2.4,60.04999762773614,2025-04-05 19h20.23.299511 +0530,
fear_upper_blur.jpg,f,93,3,15,f,1,0.5331435000116471,None,15,3,93,2,222.84719949998544,,,,,,,,,,,,,,,,222.84215019998373,222.84719949998544,224.34337029999006,224.34337029999006,224.35998879998806,224.84263209998608,224.87996019999264,f,1,,0.5331435000116471,None,K49,116,2025-04-05_19h18.08.401,416_EXPERIMENT_PSYCHOPY_AU2220019_AU2220225,2024.2.4,60.04999762773614,2025-04-05 19h20.23.299511 +0530,
surprise_lower_blur.jpg,s,94,4,15,s,1,0.5840268000029027,None,15,4,94,5,224.8978930999874,,,,,,,,,,,,,,,,224.89293020000332,224.8978930999874,226.3937728999881,226.3937728999881,226.4104049000016,226.8928437999857,226.9949454999878,s,1,,0.5840268000029027,None,K49,116,2025-04-05_19h18.08.401,416_EXPERIMENT_PSYCHOPY_AU2220019_AU2220225,2024.2.4,60.04999762773614,2025-04-05 19h20.23.299511 +0530,
fear.jpg,f,95,5,15,f,1,0.4122664000024088,None,15,5,95,0,227.01340599998366,,,,,,,,,,,,,,,,227.00854119998985,227.01340599998366,228.5101153999858,228.5101153999858,228.5273223000113,,228.92941680000513,f,1,,0.4122664000024088,None,K49,116,2025-04-05_19h18.08.401,416_EXPERIMENT_PSYCHOPY_AU2220019_AU2220225,2024.2.4,60.04999762773614,2025-04-05 19h20.23.299511 +0530,
surprise_upper_blur.jpg,s,96,0,16,f,0,0.5603763000108302,None,16,0,96,4,228.94707840000046,,,,,,,,,,,,,,,,228.94177889998537,228.94707840000046,230.4434700999991,230.4434700999991,230.46021699998528,230.94279359999928,231.01165780000156,f,0,,0.5603763000108302,None,K49,116,2025-04-05_19h18.08.401,416_EXPERIMENT_PSYCHOPY_AU2220019_AU2220225,2024.2.4,60.04999762773614,2025-04-05 19h20.23.299511 +0530,
fear_upper_blur.jpg,f,97,1,16,None,0,,,16,1,97,2,231.0291256000055,,,,,,,,,,,,,,,,231.02422980000847,231.0291256000055,232.52633449999848,232.52633449999848,232.54305740000564,233.0257935000118,233.26107929999125,None,0,233.27715559999342,,,K49,116,2025-04-05_19h18.08.401,416_EXPERIMENT_PSYCHOPY_AU2220019_AU2220225,2024.2.4,60.04999762773614,2025-04-05 19h20.23.299511 +0530,
surprise_lower_blur.jpg,s,98,2,16,None,0,,,16,2,98,5,233.27715559999342,,,,,,,,,,,,,,,,233.27331210000557,233.27715559999342,234.77686029998586,234.77686029998586,234.79308209999,235.27578580001136,235.5110361999832,None,0,235.52821940000285,,,K49,116,2025-04-05_19h18.08.401,416_EXPERIMENT_PSYCHOPY_AU2220019_AU2220225,2024.2.4,60.04999762773614,2025-04-05 19h20.23.299511 +0530,
fear.jpg,f,99,3,16,f,1,0.6707965999958105,None,16,3,99,0,235.52821940000285,,,,,,,,,,,,,,,,235.52405229999567,235.52821940000285,237.02660340000875,237.02660340000875,237.04296739998972,237.52619209999102,237.71144119999371,f,1,,0.6707965999958105,None,K49,116,2025-04-05_19h18.08.401,416_EXPERIMENT_PSYCHOPY_AU2220019_AU2220225,2024.2.4,60.04999762773614,2025-04-05 19h20.23.299511 +0530,
fear_lower_blur.jpg,f,100,4,16,f,1,0.4276190999953542,None,16,4,100,3,237.72971019998658,,,,,,,,,,,,,,,,237.72443820000626,237.72971019998658,239.22666190000018,239.22666190000018,239.24368620000314,,239.6620901999995,f,1,,0.4276190999953542,None,K49,116,2025-04-05_19h18.08.401,416_EXPERIMENT_PSYCHOPY_AU2220019_AU2220225,2024.2.4,60.04999762773614,2025-04-05 19h20.23.299511 +0530,
surprise.jpg,s,101,5,16,None,0,,,16,5,101,1,239.67986299999757,,,,,,,,,,,,,,,,239.67538249999052,239.67986299999757,241.17685049999272,241.17685049999272,241.19286660000216,241.67504100000951,241.91115199998603,None,0,241.92966840000008,,,K49,116,2025-04-05_19h18.08.401,416_EXPERIMENT_PSYCHOPY_AU2220019_AU2220225,2024.2.4,60.04999762773614,2025-04-05 19h20.23.299511 +0530,
fear_upper_blur.jpg,f,102,0,17,None,0,,,17,0,102,2,241.92966840000008,,,,,,,,,,,,,,,,241.92399599999771,241.92966840000008,243.42637420000392,243.42637420000392,243.4433979000023,243.9260132999916,244.175522000005,None,0,,,,K49,116,2025-04-05_19h18.08.401,416_EXPERIMENT_PSYCHOPY_AU2220019_AU2220225,2024.2.4,60.04999762773614,2025-04-05 19h20.23.299511 +0530,
fear.jpg,f,103,1,17,None,0,,,17,1,103,0,244.19210960000055,,,,,,,,,,,,,,,,244.18798290000996,244.19210960000055,245.6766873000015,245.6766873000015,245.69370699999854,246.17664140000124,246.41257099999348,None,0,246.4458961999917,,,K49,116,2025-04-05_19h18.08.401,416_EXPERIMENT_PSYCHOPY_AU2220019_AU2220225,2024.2.4,60.04999762773614,2025-04-05 19h20.23.299511 +0530,
surprise.jpg,s,104,2,17,None,0,,,17,2,104,1,246.4458961999917,,,,,,,,,,,,,,,,246.43864269999904,246.4458961999917,247.92711359998793,247.92711359998793,247.96035579999443,248.4439684000099,248.67750059999526,None,0,,,,K49,116,2025-04-05_19h18.08.401,416_EXPERIMENT_PSYCHOPY_AU2220019_AU2220225,2024.2.4,60.04999762773614,2025-04-05 19h20.23.299511 +0530,
surprise_lower_blur.jpg,s,105,3,17,None,0,,,17,3,105,5,248.70999269999447,,,,,,,,,,,,,,,,248.7021390000009,248.70999269999447,250.17683819998638,250.17683819998638,250.2101866999874,250.67583779999404,250.9123882999993,None,0,250.94277870000224,,,K49,116,2025-04-05_19h18.08.401,416_EXPERIMENT_PSYCHOPY_AU2220019_AU2220225,2024.2.4,60.04999762773614,2025-04-05 19h20.23.299511 +0530,
surprise_upper_blur.jpg,s,106,4,17,None,0,,,17,4,106,4,250.94277870000224,,,,,,,,,,,,,,,,250.93572320000385,250.94277870000224,252.42646600000444,252.42646600000444,252.44329399999697,252.9262202999962,253.16173069999786,None,0,253.191473999992,,,K49,116,2025-04-05_19h18.08.401,416_EXPERIMENT_PSYCHOPY_AU2220019_AU2220225,2024.2.4,60.04999762773614,2025-04-05 19h20.23.299511 +0530,
fear_lower_blur.jpg,f,107,5,17,None,0,,,17,5,107,3,253.191473999992,,,,,,,,,,,,,,,,253.18463470001006,253.191473999992,254.67679239998688,254.67679239998688,254.69317859999137,255.17582539998693,255.427194399992,None,0,,,,K49,116,2025-04-05_19h18.08.401,416_EXPERIMENT_PSYCHOPY_AU2220019_AU2220225,2024.2.4,60.04999762773614,2025-04-05 19h20.23.299511 +0530,
fear_upper_blur.jpg,f,108,0,18,None,0,,,18,0,108,2,255.44525049999356,,,,,,,,,,,,,,,,255.4402032000071,255.44525049999356,256.9267395999923,256.9267395999923,256.9599959999905,257.4268874999834,257.6608650999842,None,0,257.6779880000104,,,K49,116,2025-04-05_19h18.08.401,416_EXPERIMENT_PSYCHOPY_AU2220019_AU2220225,2024.2.4,60.04999762773614,2025-04-05 19h20.23.299511 +0530,
surprise_lower_blur.jpg,s,109,1,18,None,0,,,18,1,109,5,257.6779880000104,,,,,,,,,,,,,,,,257.6739285000076,257.6779880000104,259.1766699999862,259.1766699999862,259.1933541999897,259.67602479999186,259.9111072999949,None,0,259.9269026000111,,,K49,116,2025-04-05_19h18.08.401,416_EXPERIMENT_PSYCHOPY_AU2220019_AU2220225,2024.2.4,60.04999762773614,2025-04-05 19h20.23.299511 +0530,
fear_lower_blur.jpg,f,110,2,18,None,0,,,18,2,110,3,259.9269026000111,,,,,,,,,,,,,,,,259.9230724000081,259.9269026000111,261.42670609999914,261.42670609999914,261.42670609999914,261.926887300011,262.16205769998487,None,0,262.1977801999892,,,K49,116,2025-04-05_19h18.08.401,416_EXPERIMENT_PSYCHOPY_AU2220019_AU2220225,2024.2.4,60.04999762773614,2025-04-05 19h20.23.299511 +0530,
fear.jpg,f,111,3,18,f,1,0.46338130001095124,None,18,3,111,0,262.1977801999892,,,,,,,,,,,,,,,,262.189493199985,262.1977801999892,263.67733450001106,263.67733450001106,263.7097931999888,,264.14948779999395,f,1,,0.46338130001095124,None,K49,116,2025-04-05_19h18.08.401,416_EXPERIMENT_PSYCHOPY_AU2220019_AU2220225,2024.2.4,60.04999762773614,2025-04-05 19h20.23.299511 +0530,
surprise.jpg,s,112,4,18,f,0,0.6377730999956839,None,18,4,112,1,264.1837749000115,,,,,,,,,,,,,,,,264.17487839999376,264.1837749000115,265.6607037000067,265.6607037000067,265.69353389999014,266.1595435999916,266.31372179999016,f,0,,0.6377730999956839,None,K49,116,2025-04-05_19h18.08.401,416_EXPERIMENT_PSYCHOPY_AU2220019_AU2220225,2024.2.4,60.04999762773614,2025-04-05 19h20.23.299511 +0530,
surprise_upper_blur.jpg,s,113,5,18,None,0,,,18,5,113,4,266.34097240000847,,,,,,,,,,,,,,,,266.3333624000079,266.34097240000847,267.82633059998625,267.82633059998625,267.84300419999636,268.3258600999834,268.561481599987,None,0,268.5799497999833,,,K49,116,2025-04-05_19h18.08.401,416_EXPERIMENT_PSYCHOPY_AU2220019_AU2220225,2024.2.4,60.04999762773614,2025-04-05 19h20.23.299511 +0530,
fear.jpg,f,114,0,19,None,0,,,19,0,114,0,268.5799497999833,,,,,,,,,,,,,,,,268.5755758000014,268.5799497999833,270.07668739999644,270.07668739999644,270.09314189999714,270.57591819998925,270.81149990000995,None,0,270.8417155999923,,,K49,116,2025-04-05_19h18.08.401,416_EXPERIMENT_PSYCHOPY_AU2220019_AU2220225,2024.2.4,60.04999762773614,2025-04-05 19h20.23.299511 +0530,
surprise.jpg,s,115,1,19,None,0,,,19,1,115,1,270.8417155999923,,,,,,,,,,,,,,,,270.83501400001114,270.8417155999923,272.32668709999416,272.32668709999416,272.3427723000059,272.82560509999166,273.0610427999927,None,0,273.07806249998976,,,K49,116,2025-04-05_19h18.08.401,416_EXPERIMENT_PSYCHOPY_AU2220019_AU2220225,2024.2.4,60.04999762773614,2025-04-05 19h20.23.299511 +0530,
surprise_upper_blur.jpg,s,116,2,19,f,0,0.23354729998391122,None,19,2,116,4,273.07806249998976,,,,,,,,,,,,,,,,273.07362559999456,273.07806249998976,274.5765485999873,274.5765485999873,274.5765485999873,,274.81667229998857,f,0,,0.23354729998391122,None,K49,116,2025-04-05_19h18.08.401,416_EXPERIMENT_PSYCHOPY_AU2220019_AU2220225,2024.2.4,60.04999762773614,2025-04-05 19h20.23.299511 +0530,
surprise_lower_blur.jpg,s,117,3,19,f,0,0.6441656000097282,None,19,3,117,5,274.850689999992,,,,,,,,,,,,,,,,274.84101539998665,274.850689999992,276.3264026000106,276.3264026000106,276.3596746000112,276.8263166999968,276.9781268000079,f,0,,0.6441656000097282,None,K49,116,2025-04-05_19h18.08.401,416_EXPERIMENT_PSYCHOPY_AU2220019_AU2220225,2024.2.4,60.04999762773614,2025-04-05 19h20.23.299511 +0530,
fear_upper_blur.jpg,f,118,4,19,f,1,0.6504730999877211,None,19,4,118,2,276.99693629998364,,,,,,,,,,,,,,,,276.99181010000757,276.99693629998364,278.4940304000047,278.4940304000047,278.50989330001175,278.992273699987,279.1619004000095,f,1,,0.6504730999877211,None,K49,116,2025-04-05_19h18.08.401,416_EXPERIMENT_PSYCHOPY_AU2220019_AU2220225,2024.2.4,60.04999762773614,2025-04-05 19h20.23.299511 +0530,
fear_lower_blur.jpg,f,119,5,19,None,0,,,19,5,119,3,279.1789863999875,,,,,,,,,,,,,,,,279.17430899999454,279.1789863999875,280.67616639999324,280.67616639999324,280.69338849998894,281.17543959998875,281.41077059999225,None,0,281.4258504000027,,,K49,116,2025-04-05_19h18.08.401,416_EXPERIMENT_PSYCHOPY_AU2220019_AU2220225,2024.2.4,60.04999762773614,2025-04-05 19h20.23.299511 +0530,
