stimulus_image,correct_response,thisN,thisTrialN,thisRepN,key_resp.keys,key_resp.corr,key_resp.rt,key_resp.duration,loop.thisRepN,loop.thisTrialN,loop.thisN,loop.thisIndex,thisRow.t,notes,guide.started,instructions.started,ins_resp.started,guide.stopped,ins_resp.keys,ins_resp.rt,ins_resp.duration,guide_2.started,text.started,key_resp_2.started,guide_2.stopped,key_resp_2.keys,key_resp_2.rt,key_resp_2.duration,trial.started,fixation.started,image.started,key_resp.started,fixation.stopped,image.stopped,trial.stopped,loop.key_resp.keys,loop.key_resp.corr,key_resp.stopped,loop.key_resp.rt,loop.key_resp.duration,participant,session,date,expName,psychopyVersion,frameRate,expStart,
,,,,,,,,,,,,,,,0.004023800021968782,0.00988379999762401,0.00988379999762401,34.88492139999289,space,34.78198379999958,None,,,,,,,,,,,,,,,,,,,,K51,117,2025-04-06_20h53.22.436,416_EXPERIMENT_PSYCHOPY_AU2220019_AU2220225,2024.2.4,59.74111785768651,2025-04-06 20h56.33.237654 +0530,
,,,,,,,,,,,,,,,,,,,,,,34.885010899975896,34.89275769999949,34.89275769999949,37.354065100022126,space,2.4524890999891795,None,,,,,,,,,,,,,K51,117,2025-04-06_20h53.22.436,416_EXPERIMENT_PSYCHOPY_AU2220019_AU2220225,2024.2.4,59.74111785768651,2025-04-06 20h56.33.237654 +0530,
surprise.jpg,s,0,0,0,None,0,,,0,0,0,1,37.54011519998312,,,,,,,,,,,,,,,,37.53178919997299,37.54011519998312,38.911517400003504,38.911517400003504,39.05229090002831,39.41896249999991,39.61866470001405,None,0,,,,K51,117,2025-04-06_20h53.22.436,416_EXPERIMENT_PSYCHOPY_AU2220019_AU2220225,2024.2.4,59.74111785768651,2025-04-06 20h56.33.237654 +0530,
fear_lower_blur.jpg,f,1,1,0,None,0,,,0,1,1,3,39.665263500006404,,,,,,,,,,,,,,,,39.66061279998394,39.665263500006404,41.11888830002863,41.11888830002863,41.168442800000776,41.61848840001039,41.853002800024115,None,0,41.87155620002886,,,K51,117,2025-04-06_20h53.22.436,416_EXPERIMENT_PSYCHOPY_AU2220019_AU2220225,2024.2.4,59.74111785768651,2025-04-06 20h56.33.237654 +0530,
fear_upper_blur.jpg,f,2,2,0,f,1,0.5101589999976568,None,0,2,2,2,41.87155620002886,,,,,,,,,,,,,,,,41.86728870001389,41.87155620002886,43.36896059999708,43.36896059999708,43.385789300024044,43.868110799987335,43.887638000014704,f,1,,0.5101589999976568,None,K51,117,2025-04-06_20h53.22.436,416_EXPERIMENT_PSYCHOPY_AU2220019_AU2220225,2024.2.4,59.74111785768651,2025-04-06 20h56.33.237654 +0530,
fear.jpg,f,3,3,0,None,0,,,0,3,3,0,43.93399920000229,,,,,,,,,,,,,,,,43.92841629998293,43.93399920000229,45.401926500024274,45.401926500024274,45.43553770001745,45.90213320002658,46.13649720000103,None,0,46.18430610001087,,,K51,117,2025-04-06_20h53.22.436,416_EXPERIMENT_PSYCHOPY_AU2220019_AU2220225,2024.2.4,59.74111785768651,2025-04-06 20h56.33.237654 +0530,
surprise_lower_blur.jpg,s,4,4,0,None,0,,,0,4,4,5,46.18430610001087,,,,,,,,,,,,,,,,46.179670299985446,46.18430610001087,47.6517668000306,47.6517668000306,47.68534450000152,48.15171539998846,48.385177200019825,None,0,48.4308721999987,,,K51,117,2025-04-06_20h53.22.436,416_EXPERIMENT_PSYCHOPY_AU2220019_AU2220225,2024.2.4,59.74111785768651,2025-04-06 20h56.33.237654 +0530,
surprise_upper_blur.jpg,s,5,5,0,f,0,0.5876669000135735,None,0,5,5,4,48.4308721999987,,,,,,,,,,,,,,,,48.4259973000153,48.4308721999987,49.90226669999538,49.90226669999538,49.93512759997975,50.401548099995125,50.504970800015144,f,0,,0.5876669000135735,None,K51,117,2025-04-06_20h53.22.436,416_EXPERIMENT_PSYCHOPY_AU2220019_AU2220225,2024.2.4,59.74111785768651,2025-04-06 20h56.33.237654 +0530,
fear.jpg,f,6,0,1,s,0,0.6787136999773793,None,1,0,6,0,50.52417350001633,,,,,,,,,,,,,,,,50.51904959999956,50.52417350001633,52.01878919999581,52.01878919999581,52.035282400029246,52.51840619998984,52.7038453000132,s,0,,0.6787136999773793,None,K51,117,2025-04-06_20h53.22.436,416_EXPERIMENT_PSYCHOPY_AU2220019_AU2220225,2024.2.4,59.74111785768651,2025-04-06 20h56.33.237654 +0530,
surprise_upper_blur.jpg,s,7,1,1,f,0,0.6163377999910153,None,1,1,7,4,52.72189360001357,,,,,,,,,,,,,,,,52.717083399998955,52.72189360001357,54.21878870000364,54.21878870000364,54.235682900005486,54.718097499979194,54.838572999986354,f,0,,0.6163377999910153,None,K51,117,2025-04-06_20h53.22.436,416_EXPERIMENT_PSYCHOPY_AU2220019_AU2220225,2024.2.4,59.74111785768651,2025-04-06 20h56.33.237654 +0530,
surprise_lower_blur.jpg,s,8,2,1,s,1,0.5045700999908149,None,1,2,8,5,54.85604240000248,,,,,,,,,,,,,,,,54.85152670001844,54.85604240000248,56.35199499997543,56.35199499997543,56.36885999998776,56.85127129999455,56.8712107000174,s,1,,0.5045700999908149,None,K51,117,2025-04-06_20h53.22.436,416_EXPERIMENT_PSYCHOPY_AU2220019_AU2220225,2024.2.4,59.74111785768651,2025-04-06 20h56.33.237654 +0530,
fear_upper_blur.jpg,f,9,3,1,f,1,0.4982873000553809,None,1,3,9,2,56.888877300021704,,,,,,,,,,,,,,,,56.88413929997478,56.888877300021704,58.38536309998017,58.38536309998017,58.40169530001003,58.885442700004205,58.88845590001438,f,1,,0.4982873000553809,None,K51,117,2025-04-06_20h53.22.436,416_EXPERIMENT_PSYCHOPY_AU2220019_AU2220225,2024.2.4,59.74111785768651,2025-04-06 20h56.33.237654 +0530,
fear_lower_blur.jpg,f,10,4,1,s,0,0.33886119996896014,None,1,4,10,3,58.906297600013204,,,,,,,,,,,,,,,,58.90130179998232,58.906297600013204,60.40213970001787,60.40213970001787,60.418599000026006,,60.75447470002109,s,0,,0.33886119996896014,None,K51,117,2025-04-06_20h53.22.436,416_EXPERIMENT_PSYCHOPY_AU2220019_AU2220225,2024.2.4,59.74111785768651,2025-04-06 20h56.33.237654 +0530,
surprise.jpg,s,11,5,1,f,0,0.38614529999904335,None,1,5,11,1,60.774403400020674,,,,,,,,,,,,,,,,60.76842159999069,60.774403400020674,62.26859809999587,62.26859809999587,62.28532470000209,,62.67142959998455,f,0,,0.38614529999904335,None,K51,117,2025-04-06_20h53.22.436,416_EXPERIMENT_PSYCHOPY_AU2220019_AU2220225,2024.2.4,59.74111785768651,2025-04-06 20h56.33.237654 +0530,
fear_upper_blur.jpg,f,12,0,2,f,1,0.6040113999624737,None,2,0,12,2,62.689636300026905,,,,,,,,,,,,,,,,62.68433479999658,62.689636300026905,64.18562290002592,64.18562290002592,64.20237120002275,64.68492989998776,64.80472050001845,f,1,,0.6040113999624737,None,K51,117,2025-04-06_20h53.22.436,416_EXPERIMENT_PSYCHOPY_AU2220019_AU2220225,2024.2.4,59.74111785768651,2025-04-06 20h56.33.237654 +0530,
surprise_lower_blur.jpg,s,13,1,2,s,1,0.44223470002179965,None,2,1,13,5,64.82267299998784,,,,,,,,,,,,,,,,64.81770830001915,64.82267299998784,66.31846689997474,66.31846689997474,66.33516820002114,,66.77115250000497,s,1,,0.44223470002179965,None,K51,117,2025-04-06_20h53.22.436,416_EXPERIMENT_PSYCHOPY_AU2220019_AU2220225,2024.2.4,59.74111785768651,2025-04-06 20h56.33.237654 +0530,
fear.jpg,f,14,2,2,f,1,0.45790719997603446,None,2,2,14,0,66.78974650002783,,,,,,,,,,,,,,,,66.78522389999125,66.78974650002783,68.28564740001457,68.28564740001457,68.30154519999633,,68.75481970002875,f,1,,0.45790719997603446,None,K51,117,2025-04-06_20h53.22.436,416_EXPERIMENT_PSYCHOPY_AU2220019_AU2220225,2024.2.4,59.74111785768651,2025-04-06 20h56.33.237654 +0530,
fear_lower_blur.jpg,f,15,3,2,None,0,,,2,3,15,3,68.77309420000529,,,,,,,,,,,,,,,,68.76783379999688,68.77309420000529,70.26914960000431,70.26914960000431,70.28642710001441,70.7688023999799,71.00413299998036,None,0,71.02286219998496,,,K51,117,2025-04-06_20h53.22.436,416_EXPERIMENT_PSYCHOPY_AU2220019_AU2220225,2024.2.4,59.74111785768651,2025-04-06 20h56.33.237654 +0530,
surprise.jpg,s,16,4,2,s,1,0.6115133000421338,None,2,4,16,1,71.02286219998496,,,,,,,,,,,,,,,,71.018622100004,71.02286219998496,72.51945329998853,72.51945329998853,72.5359094000305,73.01899790001335,73.13803009997355,s,1,,0.6115133000421338,None,K51,117,2025-04-06_20h53.22.436,416_EXPERIMENT_PSYCHOPY_AU2220019_AU2220225,2024.2.4,59.74111785768651,2025-04-06 20h56.33.237654 +0530,
surprise_upper_blur.jpg,s,17,5,2,s,1,0.567385500005912,None,2,5,17,4,73.15828319999855,,,,,,,,,,,,,,,,73.15243409998948,73.15828319999855,74.65297430002829,74.65297430002829,74.66940010001417,75.15222729998641,75.23752309998963,s,1,,0.567385500005912,None,K51,117,2025-04-06_20h53.22.436,416_EXPERIMENT_PSYCHOPY_AU2220019_AU2220225,2024.2.4,59.74111785768651,2025-04-06 20h56.33.237654 +0530,
fear_lower_blur.jpg,f,18,0,3,s,0,0.5239663999527693,None,3,0,18,3,75.25496819999535,,,,,,,,,,,,,,,,75.2507013999857,75.25496819999535,76.75277060002554,76.75277060002554,76.76931870001135,77.25235139997676,77.28836539998883,s,0,,0.5239663999527693,None,K51,117,2025-04-06_20h53.22.436,416_EXPERIMENT_PSYCHOPY_AU2220019_AU2220225,2024.2.4,59.74111785768651,2025-04-06 20h56.33.237654 +0530,
surprise_lower_blur.jpg,s,19,1,3,s,1,0.5633807000122033,None,3,1,19,5,77.30778819997795,,,,,,,,,,,,,,,,77.30225870001595,77.30778819997795,78.80292190000182,78.80292190000182,78.81928489997517,79.30266649997793,79.37159519997658,s,1,,0.5633807000122033,None,K51,117,2025-04-06_20h53.22.436,416_EXPERIMENT_PSYCHOPY_AU2220019_AU2220225,2024.2.4,59.74111785768651,2025-04-06 20h56.33.237654 +0530,
surprise_upper_blur.jpg,s,20,2,3,f,0,0.5118827000260353,None,3,2,20,4,79.3898610000033,,,,,,,,,,,,,,,,79.38436979998369,79.3898610000033,80.88599570002407,80.88599570002407,80.90191130002495,81.38578880002024,81.40501300001051,f,0,,0.5118827000260353,None,K51,117,2025-04-06_20h53.22.436,416_EXPERIMENT_PSYCHOPY_AU2220019_AU2220225,2024.2.4,59.74111785768651,2025-04-06 20h56.33.237654 +0530,
fear_upper_blur.jpg,f,21,3,3,f,1,0.6173164000501856,None,3,3,21,2,81.42322609998519,,,,,,,,,,,,,,,,81.41813800000818,81.42322609998519,82.91963199997554,82.91963199997554,82.93615590000991,83.41896709997673,83.55401989998063,f,1,,0.6173164000501856,None,K51,117,2025-04-06_20h53.22.436,416_EXPERIMENT_PSYCHOPY_AU2220019_AU2220225,2024.2.4,59.74111785768651,2025-04-06 20h56.33.237654 +0530,
fear.jpg,f,22,4,3,s,0,0.5675004000077024,None,3,4,22,0,83.57388510002056,,,,,,,,,,,,,,,,83.568150600011,83.57388510002056,85.06950639997376,85.06950639997376,85.08509659999982,85.58497419999912,85.65466300002299,s,0,,0.5675004000077024,None,K51,117,2025-04-06_20h53.22.436,416_EXPERIMENT_PSYCHOPY_AU2220019_AU2220225,2024.2.4,59.74111785768651,2025-04-06 20h56.33.237654 +0530,
surprise.jpg,s,23,5,3,f,0,0.3018863999750465,None,3,5,23,1,85.67325619998155,,,,,,,,,,,,,,,,85.66891020000912,85.67325619998155,87.16959320002934,87.16959320002934,87.18590089998906,,87.48825669998769,f,0,,0.3018863999750465,None,K51,117,2025-04-06_20h53.22.436,416_EXPERIMENT_PSYCHOPY_AU2220019_AU2220225,2024.2.4,59.74111785768651,2025-04-06 20h56.33.237654 +0530,
fear_upper_blur.jpg,f,24,0,4,f,1,0.6461682000081055,None,4,0,24,2,87.50612169998931,,,,,,,,,,,,,,,,87.50201629998628,87.50612169998931,89.0031293000211,89.0031293000211,89.01945349999005,89.50225640001008,89.65434090001509,f,1,,0.6461682000081055,None,K51,117,2025-04-06_20h53.22.436,416_EXPERIMENT_PSYCHOPY_AU2220019_AU2220225,2024.2.4,59.74111785768651,2025-04-06 20h56.33.237654 +0530,
surprise_lower_blur.jpg,s,25,1,4,s,1,0.5948467000271194,None,4,1,25,5,89.67337089998182,,,,,,,,,,,,,,,,89.66800950001925,89.67337089998182,91.16944299999159,91.16944299999159,91.18583779997425,91.6691576000303,91.77219609997701,s,1,,0.5948467000271194,None,K51,117,2025-04-06_20h53.22.436,416_EXPERIMENT_PSYCHOPY_AU2220019_AU2220225,2024.2.4,59.74111785768651,2025-04-06 20h56.33.237654 +0530,
fear_lower_blur.jpg,f,26,2,4,s,0,0.6588289000210352,None,4,2,26,3,91.79069930000696,,,,,,,,,,,,,,,,91.7854411000153,91.79069930000696,93.28615330002503,93.28615330002503,93.30287780001527,93.78599260002375,93.95718269998906,s,0,,0.6588289000210352,None,K51,117,2025-04-06_20h53.22.436,416_EXPERIMENT_PSYCHOPY_AU2220019_AU2220225,2024.2.4,59.74111785768651,2025-04-06 20h56.33.237654 +0530,
surprise_upper_blur.jpg,s,27,3,4,f,0,0.5548212999710813,None,4,3,27,4,93.99026260001119,,,,,,,,,,,,,,,,93.98423459997866,93.99026260001119,95.46938429999864,95.46938429999864,95.5043880000012,95.96971739997389,96.03840469999705,f,0,,0.5548212999710813,None,K51,117,2025-04-06_20h53.22.436,416_EXPERIMENT_PSYCHOPY_AU2220019_AU2220225,2024.2.4,59.74111785768651,2025-04-06 20h56.33.237654 +0530,
fear.jpg,f,28,4,4,s,0,0.34928369999397546,None,4,4,28,0,96.0581502999994,,,,,,,,,,,,,,,,96.05285300000105,96.0581502999994,97.55256360000931,97.55256360000931,97.56938880000962,,97.9059886999894,s,0,,0.34928369999397546,None,K51,117,2025-04-06_20h53.22.436,416_EXPERIMENT_PSYCHOPY_AU2220019_AU2220225,2024.2.4,59.74111785768651,2025-04-06 20h56.33.237654 +0530,
surprise.jpg,s,29,5,4,s,1,0.5211950999801047,None,4,5,29,1,97.92554780002683,,,,,,,,,,,,,,,,97.92054690001532,97.92554780002683,99.41936499997973,99.41936499997973,99.43554929998936,99.91872329998296,99.95571389998076,s,1,,0.5211950999801047,None,K51,117,2025-04-06_20h53.22.436,416_EXPERIMENT_PSYCHOPY_AU2220019_AU2220225,2024.2.4,59.74111785768651,2025-04-06 20h56.33.237654 +0530,
fear_lower_blur.jpg,f,30,0,5,s,0,0.4838705000001937,None,5,0,30,3,99.98372850002488,,,,,,,,,,,,,,,,99.97482699999819,99.98372850002488,101.46930430002976,101.46930430002976,101.48577809997369,101.99985050002579,101.96091169997817,s,0,,0.4838705000001937,None,K51,117,2025-04-06_20h53.22.436,416_EXPERIMENT_PSYCHOPY_AU2220019_AU2220225,2024.2.4,59.74111785768651,2025-04-06 20h56.33.237654 +0530,
surprise_upper_blur.jpg,s,31,1,5,f,0,0.5101203999947757,None,5,1,31,4,101.99985050002579,,,,,,,,,,,,,,,,101.98925189999864,101.99985050002579,103.47011280001607,103.47011280001607,103.50272530002985,103.96859870001208,103.98812749999342,f,0,,0.5101203999947757,None,K51,117,2025-04-06_20h53.22.436,416_EXPERIMENT_PSYCHOPY_AU2220019_AU2220225,2024.2.4,59.74111785768651,2025-04-06 20h56.33.237654 +0530,
fear.jpg,f,32,2,5,s,0,0.6164349999744445,None,5,2,32,0,104.00482209998881,,,,,,,,,,,,,,,,103.9998082999955,104.00482209998881,105.50193049997324,105.50193049997324,105.51845109998249,106.0013895999873,106.12211019999813,s,0,,0.6164349999744445,None,K51,117,2025-04-06_20h53.22.436,416_EXPERIMENT_PSYCHOPY_AU2220019_AU2220225,2024.2.4,59.74111785768651,2025-04-06 20h56.33.237654 +0530,
surprise.jpg,s,33,3,5,f,0,0.3259282999788411,None,5,3,33,1,106.14054950000718,,,,,,,,,,,,,,,,106.1359863000107,106.14054950000718,107.63582730002236,107.63582730002236,107.65192829997977,,107.97378820000449,f,0,,0.3259282999788411,None,K51,117,2025-04-06_20h53.22.436,416_EXPERIMENT_PSYCHOPY_AU2220019_AU2220225,2024.2.4,59.74111785768651,2025-04-06 20h56.33.237654 +0530,
fear_upper_blur.jpg,f,34,4,5,s,0,0.49591509997844696,None,5,4,34,2,108.0046563000069,,,,,,,,,,,,,,,,107.99664530000882,108.0046563000069,109.48595300002489,109.48595300002489,109.51894510001875,109.98558320000302,109.99133869999787,s,0,,0.49591509997844696,None,K51,117,2025-04-06_20h53.22.436,416_EXPERIMENT_PSYCHOPY_AU2220019_AU2220225,2024.2.4,59.74111785768651,2025-04-06 20h56.33.237654 +0530,
surprise_lower_blur.jpg,s,35,5,5,s,1,0.6433900999836624,None,5,5,35,5,110.02798120002262,,,,,,,,,,,,,,,,110.01731179998023,110.02798120002262,111.50260880001588,111.50260880001588,111.53571839997312,112.0016680000117,112.1545648999745,s,1,,0.6433900999836624,None,K51,117,2025-04-06_20h53.22.436,416_EXPERIMENT_PSYCHOPY_AU2220019_AU2220225,2024.2.4,59.74111785768651,2025-04-06 20h56.33.237654 +0530,
surprise.jpg,s,36,0,6,s,1,0.6161421000142582,None,6,0,36,1,112.17327770002885,,,,,,,,,,,,,,,,112.16891270002816,112.17327770002885,113.66928570001619,113.66928570001619,113.68519089999609,114.16886660002638,114.2895897999988,s,1,,0.6161421000142582,None,K51,117,2025-04-06_20h53.22.436,416_EXPERIMENT_PSYCHOPY_AU2220019_AU2220225,2024.2.4,59.74111785768651,2025-04-06 20h56.33.237654 +0530,
surprise_lower_blur.jpg,s,37,1,6,s,1,0.490747400035616,None,6,1,37,5,114.30505560000893,,,,,,,,,,,,,,,,114.3001430000295,114.30505560000893,115.80243209999753,115.80243209999753,115.81949189997977,116.30137960001593,116.30327789997682,s,1,,0.490747400035616,None,K51,117,2025-04-06_20h53.22.436,416_EXPERIMENT_PSYCHOPY_AU2220019_AU2220225,2024.2.4,59.74111785768651,2025-04-06 20h56.33.237654 +0530,
fear_upper_blur.jpg,f,38,2,6,f,1,0.5876055000117049,None,6,2,38,2,116.31972309999401,,,,,,,,,,,,,,,,116.31472670001676,116.31972309999401,117.8188608000055,117.8188608000055,117.83556759997737,118.31747980002547,118.41967430000659,f,1,,0.5876055000117049,None,K51,117,2025-04-06_20h53.22.436,416_EXPERIMENT_PSYCHOPY_AU2220019_AU2220225,2024.2.4,59.74111785768651,2025-04-06 20h56.33.237654 +0530,
fear.jpg,f,39,3,6,s,0,0.5191201000125147,None,6,3,39,0,118.4377934000222,,,,,,,,,,,,,,,,118.43303100002231,118.4377934000222,119.93558940000366,119.93558940000366,119.95249539997894,120.43542689998867,120.47373780002818,s,0,,0.5191201000125147,None,K51,117,2025-04-06_20h53.22.436,416_EXPERIMENT_PSYCHOPY_AU2220019_AU2220225,2024.2.4,59.74111785768651,2025-04-06 20h56.33.237654 +0530,
fear_lower_blur.jpg,f,40,4,6,s,0,0.6087359000230208,None,6,4,40,3,120.4908675000188,,,,,,,,,,,,,,,,120.48635169997578,120.4908675000188,121.98538819997339,121.98538819997339,122.00227749999613,122.4850045000203,122.60366080002859,s,0,,0.6087359000230208,None,K51,117,2025-04-06_20h53.22.436,416_EXPERIMENT_PSYCHOPY_AU2220019_AU2220225,2024.2.4,59.74111785768651,2025-04-06 20h56.33.237654 +0530,
surprise_upper_blur.jpg,s,41,5,6,f,0,0.566804800007958,None,6,5,41,4,122.61942409997573,,,,,,,,,,,,,,,,122.61489959998289,122.61942409997573,124.1187214999809,124.1187214999809,124.1187214999809,124.61845070001436,124.68930030002957,f,0,,0.566804800007958,None,K51,117,2025-04-06_20h53.22.436,416_EXPERIMENT_PSYCHOPY_AU2220019_AU2220225,2024.2.4,59.74111785768651,2025-04-06 20h56.33.237654 +0530,
fear_lower_blur.jpg,f,42,0,7,s,0,0.5807766999932937,None,7,0,42,3,124.70521709998138,,,,,,,,,,,,,,,,124.70089500001632,124.70521709998138,126.20248560002074,126.20248560002074,126.21904840000207,126.7022359999828,126.78742720000446,s,0,,0.5807766999932937,None,K51,117,2025-04-06_20h53.22.436,416_EXPERIMENT_PSYCHOPY_AU2220019_AU2220225,2024.2.4,59.74111785768651,2025-04-06 20h56.33.237654 +0530,
surprise.jpg,s,43,1,7,None,0,,,7,1,43,1,126.80641219997779,,,,,,,,,,,,,,,,126.80138050002279,126.80641219997779,128.30208440002752,128.30208440002752,128.31876210001064,128.8013299999875,129.03759309998713,None,0,129.06222139997408,,,K51,117,2025-04-06_20h53.22.436,416_EXPERIMENT_PSYCHOPY_AU2220019_AU2220225,2024.2.4,59.74111785768651,2025-04-06 20h56.33.237654 +0530,
surprise_lower_blur.jpg,s,44,2,7,s,1,0.533988400013186,None,7,2,44,5,129.06222139997408,,,,,,,,,,,,,,,,129.05682180001168,129.06222139997408,130.55251429998316,130.55251429998316,130.56857120001223,131.05122449999908,131.10228579997784,s,1,,0.533988400013186,None,K51,117,2025-04-06_20h53.22.436,416_EXPERIMENT_PSYCHOPY_AU2220019_AU2220225,2024.2.4,59.74111785768651,2025-04-06 20h56.33.237654 +0530,
fear_upper_blur.jpg,f,45,3,7,None,0,,,7,3,45,2,131.12162240000907,,,,,,,,,,,,,,,,131.1164778000093,131.12162240000907,132.60239680000814,132.60239680000814,132.6361143999966,133.10237689997302,133.3371641000267,None,0,133.35757420002483,,,K51,117,2025-04-06_20h53.22.436,416_EXPERIMENT_PSYCHOPY_AU2220019_AU2220225,2024.2.4,59.74111785768651,2025-04-06 20h56.33.237654 +0530,
fear.jpg,f,46,4,7,None,0,,,7,4,46,0,133.35757420002483,,,,,,,,,,,,,,,,133.35141740000108,133.35757420002483,134.8522238000296,134.8522238000296,134.86868459999096,135.35176089999732,135.58679460000712,None,0,135.61911879997933,,,K51,117,2025-04-06_20h53.22.436,416_EXPERIMENT_PSYCHOPY_AU2220019_AU2220225,2024.2.4,59.74111785768651,2025-04-06 20h56.33.237654 +0530,
surprise_upper_blur.jpg,s,47,5,7,f,0,0.37403840001206845,None,7,5,47,4,135.61911879997933,,,,,,,,,,,,,,,,135.61055380001199,135.61911879997933,137.10218749998603,137.10218749998603,137.11879719997523,,137.48760839999886,f,0,,0.37403840001206845,None,K51,117,2025-04-06_20h53.22.436,416_EXPERIMENT_PSYCHOPY_AU2220019_AU2220225,2024.2.4,59.74111785768651,2025-04-06 20h56.33.237654 +0530,
surprise_lower_blur.jpg,s,48,0,8,s,1,0.40388830000301823,None,8,0,48,5,137.50591429998167,,,,,,,,,,,,,,,,137.5008234999841,137.50591429998167,139.00623030000133,139.00623030000133,139.02071950002573,,139.42107949999627,s,1,,0.40388830000301823,None,K51,117,2025-04-06_20h53.22.436,416_EXPERIMENT_PSYCHOPY_AU2220019_AU2220225,2024.2.4,59.74111785768651,2025-04-06 20h56.33.237654 +0530,
fear.jpg,f,49,1,8,f,1,0.3652369999908842,None,8,1,49,0,139.44086620002054,,,,,,,,,,,,,,,,139.43588609999279,139.44086620002054,140.9352112999768,140.9352112999768,140.95205249998253,,141.31266009999672,f,1,,0.3652369999908842,None,K51,117,2025-04-06_20h53.22.436,416_EXPERIMENT_PSYCHOPY_AU2220019_AU2220225,2024.2.4,59.74111785768651,2025-04-06 20h56.33.237654 +0530,
fear_upper_blur.jpg,f,50,2,8,s,0,0.5075540000107139,None,8,2,50,2,141.33636950002983,,,,,,,,,,,,,,,,141.33088239998324,141.33636950002983,142.81883379997453,142.81883379997453,142.835377099982,143.3181296000257,143.33723860001191,s,0,,0.5075540000107139,None,K51,117,2025-04-06_20h53.22.436,416_EXPERIMENT_PSYCHOPY_AU2220019_AU2220225,2024.2.4,59.74111785768651,2025-04-06 20h56.33.237654 +0530,
fear_lower_blur.jpg,f,51,3,8,s,0,0.6762320999987423,None,8,3,51,3,143.35508700000355,,,,,,,,,,,,,,,,143.35042129998328,143.35508700000355,144.83580639999127,144.83580639999127,144.8691458000103,145.3348369000014,145.52666630002204,s,0,,0.6762320999987423,None,K51,117,2025-04-06_20h53.22.436,416_EXPERIMENT_PSYCHOPY_AU2220019_AU2220225,2024.2.4,59.74111785768651,2025-04-06 20h56.33.237654 +0530,
surprise_upper_blur.jpg,s,52,4,8,f,0,0.5773315000114962,None,8,4,52,4,145.55756899999687,,,,,,,,,,,,,,,,145.55050379998283,145.55756899999687,147.0362287000171,147.0362287000171,147.06868909997866,147.55210889998125,147.6251164000132,f,0,,0.5773315000114962,None,K51,117,2025-04-06_20h53.22.436,416_EXPERIMENT_PSYCHOPY_AU2220019_AU2220225,2024.2.4,59.74111785768651,2025-04-06 20h56.33.237654 +0530,
surprise.jpg,s,53,5,8,s,1,0.537472500000149,None,8,5,53,1,147.66689160000533,,,,,,,,,,,,,,,,147.65745110000717,147.66689160000533,149.13504080002895,149.13504080002895,149.16835699998774,149.63473210000666,149.692065500014,s,1,,0.537472500000149,None,K51,117,2025-04-06_20h53.22.436,416_EXPERIMENT_PSYCHOPY_AU2220019_AU2220225,2024.2.4,59.74111785768651,2025-04-06 20h56.33.237654 +0530,
fear.jpg,f,54,0,9,s,0,0.5880302999867126,None,9,0,54,0,149.710456300003,,,,,,,,,,,,,,,,149.70588139997562,149.710456300003,151.20184599998174,151.20184599998174,151.21854339999845,151.70190079999156,151.80575830000453,s,0,,0.5880302999867126,None,K51,117,2025-04-06_20h53.22.436,416_EXPERIMENT_PSYCHOPY_AU2220019_AU2220225,2024.2.4,59.74111785768651,2025-04-06 20h56.33.237654 +0530,
surprise_lower_blur.jpg,s,55,1,9,s,1,0.39345650002360344,None,9,1,55,5,151.82394049997674,,,,,,,,,,,,,,,,151.81900989997666,151.82394049997674,153.3188779000193,153.3188779000193,153.33545170002617,,153.7210492999875,s,1,,0.39345650002360344,None,K51,117,2025-04-06_20h53.22.436,416_EXPERIMENT_PSYCHOPY_AU2220019_AU2220225,2024.2.4,59.74111785768651,2025-04-06 20h56.33.237654 +0530,
surprise_upper_blur.jpg,s,56,2,9,f,0,0.5475405999459326,None,9,2,56,4,153.7385326999938,,,,,,,,,,,,,,,,153.7335871999967,153.7385326999938,155.23601100000087,155.23601100000087,155.25276780000422,155.73557199997595,155.7875125000137,f,0,,0.5475405999459326,None,K51,117,2025-04-06_20h53.22.436,416_EXPERIMENT_PSYCHOPY_AU2220019_AU2220225,2024.2.4,59.74111785768651,2025-04-06 20h56.33.237654 +0530,
fear_lower_blur.jpg,f,57,3,9,s,0,0.4543538000434637,None,9,3,57,3,155.80629939999199,,,,,,,,,,,,,,,,155.8013701000018,155.80629939999199,157.30265099997632,157.30265099997632,157.31911669997498,,157.7716395999887,s,0,,0.4543538000434637,None,K51,117,2025-04-06_20h53.22.436,416_EXPERIMENT_PSYCHOPY_AU2220019_AU2220225,2024.2.4,59.74111785768651,2025-04-06 20h56.33.237654 +0530,
fear_upper_blur.jpg,f,58,4,9,f,1,0.6173959000152536,None,9,4,58,2,157.78968879999593,,,,,,,,,,,,,,,,157.78519760002382,157.78968879999593,159.28584520000732,159.28584520000732,159.3043390000239,159.78506419999758,159.92102529999102,f,1,,0.6173959000152536,None,K51,117,2025-04-06_20h53.22.436,416_EXPERIMENT_PSYCHOPY_AU2220019_AU2220225,2024.2.4,59.74111785768651,2025-04-06 20h56.33.237654 +0530,
surprise.jpg,s,59,5,9,s,1,0.5067907000193372,None,9,5,59,1,159.9393517000135,,,,,,,,,,,,,,,,159.93542739999248,159.9393517000135,161.4353957999847,161.4353957999847,161.45237220003037,161.93570179998642,161.9538321000291,s,1,,0.5067907000193372,None,K51,117,2025-04-06_20h53.22.436,416_EXPERIMENT_PSYCHOPY_AU2220019_AU2220225,2024.2.4,59.74111785768651,2025-04-06 20h56.33.237654 +0530,
fear.jpg,f,60,0,10,f,1,0.5287176000420004,None,10,0,60,0,161.97426699998323,,,,,,,,,,,,,,,,161.9695244000177,161.97426699998323,163.46919390000403,163.46919390000403,163.48551269999007,163.9681777000078,164.00298009999096,f,1,,0.5287176000420004,None,K51,117,2025-04-06_20h53.22.436,416_EXPERIMENT_PSYCHOPY_AU2220019_AU2220225,2024.2.4,59.74111785768651,2025-04-06 20h56.33.237654 +0530,
surprise.jpg,s,61,1,10,s,1,0.5312868999899365,None,10,1,61,1,164.02117790002376,,,,,,,,,,,,,,,,164.01638889999595,164.02117790002376,165.51923799997894,165.51923799997894,165.5357231000089,166.01850679999916,166.05403820000356,s,1,,0.5312868999899365,None,K51,117,2025-04-06_20h53.22.436,416_EXPERIMENT_PSYCHOPY_AU2220019_AU2220225,2024.2.4,59.74111785768651,2025-04-06 20h56.33.237654 +0530,
surprise_upper_blur.jpg,s,62,2,10,f,0,0.5404340000241064,None,10,2,62,4,166.071045699995,,,,,,,,,,,,,,,,166.06664779997664,166.071045699995,167.56913700001314,167.56913700001314,167.5853377999738,168.0676956999814,168.1207392999786,f,0,,0.5404340000241064,None,K51,117,2025-04-06_20h53.22.436,416_EXPERIMENT_PSYCHOPY_AU2220019_AU2220225,2024.2.4,59.74111785768651,2025-04-06 20h56.33.237654 +0530,
fear_upper_blur.jpg,f,63,3,10,f,1,0.5714248000294901,None,10,3,63,2,168.1390723999939,,,,,,,,,,,,,,,,168.1336948000244,168.1390723999939,169.63596749998396,169.63596749998396,169.65259449998848,170.1348311000038,170.2247532000183,f,1,,0.5714248000294901,None,K51,117,2025-04-06_20h53.22.436,416_EXPERIMENT_PSYCHOPY_AU2220019_AU2220225,2024.2.4,59.74111785768651,2025-04-06 20h56.33.237654 +0530,
surprise_lower_blur.jpg,s,64,4,10,s,1,0.5781007999903522,None,10,4,64,5,170.2532865999965,,,,,,,,,,,,,,,,170.24780230002943,170.2532865999965,171.73532370000612,171.73532370000612,171.76881979999598,172.23545979999471,172.32180159998825,s,1,,0.5781007999903522,None,K51,117,2025-04-06_20h53.22.436,416_EXPERIMENT_PSYCHOPY_AU2220019_AU2220225,2024.2.4,59.74111785768651,2025-04-06 20h56.33.237654 +0530,
fear_lower_blur.jpg,f,65,5,10,s,0,0.6234504000167362,None,10,5,65,3,172.33683599997312,,,,,,,,,,,,,,,,172.33273919997737,172.33683599997312,173.83570709999185,173.83570709999185,173.85274599998957,174.33544059999986,174.4703717000084,s,0,,0.6234504000167362,None,K51,117,2025-04-06_20h53.22.436,416_EXPERIMENT_PSYCHOPY_AU2220019_AU2220225,2024.2.4,59.74111785768651,2025-04-06 20h56.33.237654 +0530,
fear_upper_blur.jpg,f,66,0,11,f,1,0.5464493000181392,None,11,0,66,2,174.48728270002175,,,,,,,,,,,,,,,,174.4828097000136,174.48728270002175,175.98583249998046,175.98583249998046,176.00215120002395,176.48508379998384,176.53746989998035,f,1,,0.5464493000181392,None,K51,117,2025-04-06_20h53.22.436,416_EXPERIMENT_PSYCHOPY_AU2220019_AU2220225,2024.2.4,59.74111785768651,2025-04-06 20h56.33.237654 +0530,
surprise.jpg,s,67,1,11,s,1,0.46384590002708137,None,11,1,67,1,176.55676980002318,,,,,,,,,,,,,,,,176.55212260002736,176.55676980002318,178.05309950001538,178.05309950001538,178.06948040000862,,178.5245600999915,s,1,,0.46384590002708137,None,K51,117,2025-04-06_20h53.22.436,416_EXPERIMENT_PSYCHOPY_AU2220019_AU2220225,2024.2.4,59.74111785768651,2025-04-06 20h56.33.237654 +0530,
fear_lower_blur.jpg,f,68,2,11,s,0,0.6788918999955058,None,11,2,68,3,178.554679199995,,,,,,,,,,,,,,,,178.54455300001428,178.554679199995,180.03586190001806,180.03586190001806,180.06958399998257,180.5360115999938,180.72426779998932,s,0,,0.6788918999955058,None,K51,117,2025-04-06_20h53.22.436,416_EXPERIMENT_PSYCHOPY_AU2220019_AU2220225,2024.2.4,59.74111785768651,2025-04-06 20h56.33.237654 +0530,
fear.jpg,f,69,3,11,s,0,0.5481429999927059,None,11,3,69,0,180.7546316999942,,,,,,,,,,,,,,,,180.7489738999866,180.7546316999942,182.23605649999809,182.23605649999809,182.26882459997432,182.73493600002257,182.78828340000473,s,0,,0.5481429999927059,None,K51,117,2025-04-06_20h53.22.436,416_EXPERIMENT_PSYCHOPY_AU2220019_AU2220225,2024.2.4,59.74111785768651,2025-04-06 20h56.33.237654 +0530,
surprise_lower_blur.jpg,s,70,4,11,s,1,0.5000916999997571,None,11,4,70,5,182.80805420002434,,,,,,,,,,,,,,,,182.80195719999028,182.80805420002434,184.30241920001572,184.30241920001572,184.31885799998417,184.80210460000671,184.8065462000086,s,1,,0.5000916999997571,None,K51,117,2025-04-06_20h53.22.436,416_EXPERIMENT_PSYCHOPY_AU2220019_AU2220225,2024.2.4,59.74111785768651,2025-04-06 20h56.33.237654 +0530,
surprise_upper_blur.jpg,s,71,5,11,f,0,0.5345781000214629,None,11,5,71,4,184.8236057999893,,,,,,,,,,,,,,,,184.81919930002186,184.8236057999893,186.31891269999323,186.31891269999323,186.33563500002492,186.81835399998818,186.87090859998716,f,0,,0.5345781000214629,None,K51,117,2025-04-06_20h53.22.436,416_EXPERIMENT_PSYCHOPY_AU2220019_AU2220225,2024.2.4,59.74111785768651,2025-04-06 20h56.33.237654 +0530,
surprise_lower_blur.jpg,s,72,0,12,f,0,0.7169960999744944,None,12,0,72,5,186.88886170001933,,,,,,,,,,,,,,,,186.88397279998753,186.88886170001933,188.38564739999129,188.38564739999129,188.40222980000544,188.88506739999866,189.10633669997333,f,0,,0.7169960999744944,None,K51,117,2025-04-06_20h53.22.436,416_EXPERIMENT_PSYCHOPY_AU2220019_AU2220225,2024.2.4,59.74111785768651,2025-04-06 20h56.33.237654 +0530,
fear_upper_blur.jpg,f,73,1,12,f,1,0.6062840999802575,None,12,1,73,2,189.12406120001106,,,,,,,,,,,,,,,,189.11941370001296,189.12406120001106,190.61943130003056,190.61943130003056,190.6365819000057,191.11979010002688,191.23830849997466,f,1,,0.6062840999802575,None,K51,117,2025-04-06_20h53.22.436,416_EXPERIMENT_PSYCHOPY_AU2220019_AU2220225,2024.2.4,59.74111785768651,2025-04-06 20h56.33.237654 +0530,
surprise_upper_blur.jpg,s,74,2,12,f,0,0.51322490000166,None,12,2,74,4,191.2570260000066,,,,,,,,,,,,,,,,191.25184260000242,191.2570260000066,192.75327400001697,192.75327400001697,192.7695454999921,193.2523618999985,193.27093830000376,f,0,,0.51322490000166,None,K51,117,2025-04-06_20h53.22.436,416_EXPERIMENT_PSYCHOPY_AU2220019_AU2220225,2024.2.4,59.74111785768651,2025-04-06 20h56.33.237654 +0530,
fear.jpg,f,75,3,12,s,0,0.5132866000058129,None,12,3,75,0,193.29045169998426,,,,,,,,,,,,,,,,193.28525750001427,193.29045169998426,194.78569709998555,194.78569709998555,194.80216590000782,195.28542199998628,195.305037299986,s,0,,0.5132866000058129,None,K51,117,2025-04-06_20h53.22.436,416_EXPERIMENT_PSYCHOPY_AU2220019_AU2220225,2024.2.4,59.74111785768651,2025-04-06 20h56.33.237654 +0530,
fear_lower_blur.jpg,f,76,4,12,s,0,0.5613997000036761,None,12,4,76,3,195.32338950003032,,,,,,,,,,,,,,,,195.3181974000181,195.32338950003032,196.81908839999232,196.81908839999232,196.83611789997667,197.31824799999595,197.38725209998665,s,0,,0.5613997000036761,None,K51,117,2025-04-06_20h53.22.436,416_EXPERIMENT_PSYCHOPY_AU2220019_AU2220225,2024.2.4,59.74111785768651,2025-04-06 20h56.33.237654 +0530,
surprise.jpg,s,77,5,12,s,1,0.5860568000352941,None,12,5,77,1,197.40303400001721,,,,,,,,,,,,,,,,197.39874730003066,197.40303400001721,198.90197569999145,198.90197569999145,198.90197569999145,199.4019163000048,199.50487720000092,s,1,,0.5860568000352941,None,K51,117,2025-04-06_20h53.22.436,416_EXPERIMENT_PSYCHOPY_AU2220019_AU2220225,2024.2.4,59.74111785768651,2025-04-06 20h56.33.237654 +0530,
fear_lower_blur.jpg,f,78,0,13,f,1,0.5865352000109851,None,13,0,78,3,199.52246180002112,,,,,,,,,,,,,,,,199.5171529999934,199.52246180002112,201.01826989999972,201.01826989999972,201.03507410001475,201.51869029999943,201.61961210001027,f,1,,0.5865352000109851,None,K51,117,2025-04-06_20h53.22.436,416_EXPERIMENT_PSYCHOPY_AU2220019_AU2220225,2024.2.4,59.74111785768651,2025-04-06 20h56.33.237654 +0530,
surprise.jpg,s,79,1,13,f,0,0.49627979996148497,None,13,1,79,1,201.63604210002813,,,,,,,,,,,,,,,,201.6314392000204,201.63604210002813,203.11958619998768,203.11958619998768,203.13552790001268,203.6189233000041,203.6215680000023,f,0,,0.49627979996148497,None,K51,117,2025-04-06_20h53.22.436,416_EXPERIMENT_PSYCHOPY_AU2220019_AU2220225,2024.2.4,59.74111785768651,2025-04-06 20h56.33.237654 +0530,
surprise_lower_blur.jpg,s,80,2,13,s,1,0.4760315000312403,None,13,2,80,5,203.63851580000482,,,,,,,,,,,,,,,,203.63387540000258,203.63851580000482,205.13624179997714,205.13624179997714,205.1527224999736,205.64061689999653,205.62286379997386,s,1,,0.4760315000312403,None,K51,117,2025-04-06_20h53.22.436,416_EXPERIMENT_PSYCHOPY_AU2220019_AU2220225,2024.2.4,59.74111785768651,2025-04-06 20h56.33.237654 +0530,
surprise_upper_blur.jpg,s,81,3,13,f,0,0.624109199969098,None,13,3,81,4,205.64061689999653,,,,,,,,,,,,,,,,205.63575040001888,205.64061689999653,207.13652589998674,207.13652589998674,207.1526241999818,207.63601489999564,207.77128779998748,f,0,,0.624109199969098,None,K51,117,2025-04-06_20h53.22.436,416_EXPERIMENT_PSYCHOPY_AU2220019_AU2220225,2024.2.4,59.74111785768651,2025-04-06 20h56.33.237654 +0530,
fear.jpg,f,82,4,13,s,0,0.6056295000016689,None,13,4,82,0,207.79015259997686,,,,,,,,,,,,,,,,207.78473830001894,207.79015259997686,209.2860418999917,209.2860418999917,209.3030039999867,209.78572149999673,209.90718859998742,s,0,,0.6056295000016689,None,K51,117,2025-04-06_20h53.22.436,416_EXPERIMENT_PSYCHOPY_AU2220019_AU2220225,2024.2.4,59.74111785768651,2025-04-06 20h56.33.237654 +0530,
fear_upper_blur.jpg,f,83,5,13,f,1,0.7114085999783128,None,13,5,83,2,209.9395799000049,,,,,,,,,,,,,,,,209.9310623999918,209.9395799000049,211.41865790000884,211.41865790000884,211.45128380000824,211.9190945000155,212.138467199984,f,1,,0.7114085999783128,None,K51,117,2025-04-06_20h53.22.436,416_EXPERIMENT_PSYCHOPY_AU2220019_AU2220225,2024.2.4,59.74111785768651,2025-04-06 20h56.33.237654 +0530,
surprise_lower_blur.jpg,s,84,0,14,s,1,0.5875972000067122,None,14,0,84,5,212.15695279999636,,,,,,,,,,,,,,,,212.1515898000216,212.15695279999636,213.65318520000437,213.65318520000437,213.66951560002053,214.1518161999993,214.25765819998924,s,1,,0.5875972000067122,None,K51,117,2025-04-06_20h53.22.436,416_EXPERIMENT_PSYCHOPY_AU2220019_AU2220225,2024.2.4,59.74111785768651,2025-04-06 20h56.33.237654 +0530,
fear_lower_blur.jpg,f,85,1,14,None,0,,,14,1,85,3,214.29127450002125,,,,,,,,,,,,,,,,214.2856444999925,214.29127450002125,215.76933709997684,215.76933709997684,215.80294279998634,216.2687180999783,216.5079002000275,None,0,216.53962930000853,,,K51,117,2025-04-06_20h53.22.436,416_EXPERIMENT_PSYCHOPY_AU2220019_AU2220225,2024.2.4,59.74111785768651,2025-04-06 20h56.33.237654 +0530,
surprise_upper_blur.jpg,s,86,2,14,f,0,0.6256631000433117,None,14,2,86,4,216.53962930000853,,,,,,,,,,,,,,,,216.5348806999973,216.53962930000853,218.01913989998866,218.01913989998866,218.05243239999982,218.51904159999685,218.6548627000302,f,0,,0.6256631000433117,None,K51,117,2025-04-06_20h53.22.436,416_EXPERIMENT_PSYCHOPY_AU2220019_AU2220225,2024.2.4,59.74111785768651,2025-04-06 20h56.33.237654 +0530,
fear_upper_blur.jpg,f,87,3,14,f,1,0.37832560000242665,None,14,3,87,2,218.67372909997357,,,,,,,,,,,,,,,,218.66833860002225,218.67372909997357,220.16868740000064,220.16868740000064,220.18500080000376,,220.55732359999092,f,1,,0.37832560000242665,None,K51,117,2025-04-06_20h53.22.436,416_EXPERIMENT_PSYCHOPY_AU2220019_AU2220225,2024.2.4,59.74111785768651,2025-04-06 20h56.33.237654 +0530,
fear.jpg,f,88,4,14,s,0,0.6114089000038803,None,14,4,88,0,220.58929149998585,,,,,,,,,,,,,,,,220.57994429999962,220.58929149998585,222.0690480999765,222.0690480999765,222.1025471999892,222.5700628000195,222.69130539998878,s,0,,0.6114089000038803,None,K51,117,2025-04-06_20h53.22.436,416_EXPERIMENT_PSYCHOPY_AU2220019_AU2220225,2024.2.4,59.74111785768651,2025-04-06 20h56.33.237654 +0530,
surprise.jpg,s,89,5,14,s,1,0.5879117999575101,None,14,5,89,1,222.7307054999983,,,,,,,,,,,,,,,,222.71997490001377,222.7307054999983,224.20258179999655,224.20258179999655,224.23604669998167,224.70157720003044,224.80388010002207,s,1,,0.5879117999575101,None,K51,117,2025-04-06_20h53.22.436,416_EXPERIMENT_PSYCHOPY_AU2220019_AU2220225,2024.2.4,59.74111785768651,2025-04-06 20h56.33.237654 +0530,
fear_upper_blur.jpg,f,90,0,15,f,1,0.6699502000119537,None,15,0,90,2,224.8209688999923,,,,,,,,,,,,,,,,224.81646150001325,224.8209688999923,226.31917989999056,226.31917989999056,226.3357827999862,226.81802060001064,227.0040695000207,f,1,,0.6699502000119537,None,K51,117,2025-04-06_20h53.22.436,416_EXPERIMENT_PSYCHOPY_AU2220019_AU2220225,2024.2.4,59.74111785768651,2025-04-06 20h56.33.237654 +0530,
surprise_upper_blur.jpg,s,91,1,15,f,0,0.6374141000560485,None,15,1,91,4,227.02108680002857,,,,,,,,,,,,,,,,227.01644019997912,227.02108680002857,228.51904009998543,228.51904009998543,228.53577299998142,229.01884319999954,229.17265459999908,f,0,,0.6374141000560485,None,K51,117,2025-04-06_20h53.22.436,416_EXPERIMENT_PSYCHOPY_AU2220019_AU2220225,2024.2.4,59.74111785768651,2025-04-06 20h56.33.237654 +0530,
fear.jpg,f,92,2,15,s,0,0.5509298999677412,None,15,2,92,0,229.19965199998114,,,,,,,,,,,,,,,,229.1916914000176,229.19965199998114,230.68565729999682,230.68565729999682,230.70270710001932,231.1851825999911,231.2542734000017,s,0,,0.5509298999677412,None,K51,117,2025-04-06_20h53.22.436,416_EXPERIMENT_PSYCHOPY_AU2220019_AU2220225,2024.2.4,59.74111785768651,2025-04-06 20h56.33.237654 +0530,
surprise_lower_blur.jpg,s,93,3,15,s,1,0.49136680003721267,None,15,3,93,5,231.27126429998316,,,,,,,,,,,,,,,,231.26720180001575,231.27126429998316,232.7686922000139,232.7686922000139,232.78537499997765,233.26865189999808,233.2710892999894,s,1,,0.49136680003721267,None,K51,117,2025-04-06_20h53.22.436,416_EXPERIMENT_PSYCHOPY_AU2220019_AU2220225,2024.2.4,59.74111785768651,2025-04-06 20h56.33.237654 +0530,
surprise.jpg,s,94,4,15,s,1,0.4670196999795735,None,15,4,94,1,233.28979379998054,,,,,,,,,,,,,,,,233.284815800027,233.28979379998054,234.7862255999935,234.7862255999935,234.8024643000099,,235.2569863999961,s,1,,0.4670196999795735,None,K51,117,2025-04-06_20h53.22.436,416_EXPERIMENT_PSYCHOPY_AU2220019_AU2220225,2024.2.4,59.74111785768651,2025-04-06 20h56.33.237654 +0530,
fear_lower_blur.jpg,f,95,5,15,s,0,0.3650184999569319,None,15,5,95,3,235.27500139997574,,,,,,,,,,,,,,,,235.26971530000446,235.27500139997574,236.76885140000377,236.76885140000377,236.78592410002602,,237.13783600000897,s,0,,0.3650184999569319,None,K51,117,2025-04-06_20h53.22.436,416_EXPERIMENT_PSYCHOPY_AU2220019_AU2220225,2024.2.4,59.74111785768651,2025-04-06 20h56.33.237654 +0530,
fear_lower_blur.jpg,f,96,0,16,None,0,,,16,0,96,3,237.15697539999383,,,,,,,,,,,,,,,,237.1517872000113,237.15697539999383,238.65269810002064,238.65269810002064,238.66945709998254,239.15191439999035,239.40234129998134,None,0,,,,K51,117,2025-04-06_20h53.22.436,416_EXPERIMENT_PSYCHOPY_AU2220019_AU2220225,2024.2.4,59.74111785768651,2025-04-06 20h56.33.237654 +0530,
fear.jpg,f,97,1,16,s,0,0.39600890001747757,None,16,1,97,0,239.42084440001054,,,,,,,,,,,,,,,,239.41565679997439,239.42084440001054,240.9032035000273,240.9032035000273,240.91952509997645,,241.30913599999622,s,0,,0.39600890001747757,None,K51,117,2025-04-06_20h53.22.436,416_EXPERIMENT_PSYCHOPY_AU2220019_AU2220225,2024.2.4,59.74111785768651,2025-04-06 20h56.33.237654 +0530,
surprise.jpg,s,98,2,16,s,1,0.5516799000324681,None,16,2,98,1,241.34627219999675,,,,,,,,,,,,,,,,241.33736730000237,241.34627219999675,242.81934089999413,242.81934089999413,242.85293809999712,243.3184018000029,243.3860382999992,s,1,,0.5516799000324681,None,K51,117,2025-04-06_20h53.22.436,416_EXPERIMENT_PSYCHOPY_AU2220019_AU2220225,2024.2.4,59.74111785768651,2025-04-06 20h56.33.237654 +0530,
fear_upper_blur.jpg,f,99,3,16,f,1,0.551696999988053,None,16,3,99,2,243.40470650000498,,,,,,,,,,,,,,,,243.39850329997716,243.40470650000498,244.88597559998743,244.88597559998743,244.91938049998134,245.3853669000091,245.45270939997863,f,1,,0.551696999988053,None,K51,117,2025-04-06_20h53.22.436,416_EXPERIMENT_PSYCHOPY_AU2220019_AU2220225,2024.2.4,59.74111785768651,2025-04-06 20h56.33.237654 +0530,
surprise_lower_blur.jpg,s,100,4,16,s,1,0.4479822000139393,None,16,4,100,5,245.4680320000043,,,,,,,,,,,,,,,,245.46345859998837,245.4680320000043,246.96917080000276,246.96917080000276,246.96917080000276,,247.42571420001332,s,1,,0.4479822000139393,None,K51,117,2025-04-06_20h53.22.436,416_EXPERIMENT_PSYCHOPY_AU2220019_AU2220225,2024.2.4,59.74111785768651,2025-04-06 20h56.33.237654 +0530,
surprise_upper_blur.jpg,s,101,5,16,f,0,0.5086800999706611,None,16,5,101,4,247.4645200999803,,,,,,,,,,,,,,,,247.45402800000738,247.4645200999803,248.93551510001998,248.93551510001998,248.9690201000194,249.43554899998708,249.45685989997583,f,0,,0.5086800999706611,None,K51,117,2025-04-06_20h53.22.436,416_EXPERIMENT_PSYCHOPY_AU2220019_AU2220225,2024.2.4,59.74111785768651,2025-04-06 20h56.33.237654 +0530,
surprise_lower_blur.jpg,s,102,0,17,s,1,0.5061015000101179,None,17,0,102,5,249.48281120002503,,,,,,,,,,,,,,,,249.47646039997926,249.48281120002503,250.96917100000428,250.96917100000428,250.9857029999839,251.46875160001218,251.4917019000277,s,1,,0.5061015000101179,None,K51,117,2025-04-06_20h53.22.436,416_EXPERIMENT_PSYCHOPY_AU2220019_AU2220225,2024.2.4,59.74111785768651,2025-04-06 20h56.33.237654 +0530,
fear.jpg,f,103,1,17,s,0,0.6448916000081226,None,17,1,103,0,251.52108430000953,,,,,,,,,,,,,,,,251.5156579000177,251.52108430000953,253.0022446999792,253.0022446999792,253.03534140001284,253.50217749999138,253.65430579998065,s,0,,0.6448916000081226,None,K51,117,2025-04-06_20h53.22.436,416_EXPERIMENT_PSYCHOPY_AU2220019_AU2220225,2024.2.4,59.74111785768651,2025-04-06 20h56.33.237654 +0530,
fear_lower_blur.jpg,f,104,2,17,s,0,0.47077219997299835,None,17,2,104,3,253.6719124999945,,,,,,,,,,,,,,,,253.66713570000138,253.6719124999945,255.16928059997736,255.16928059997736,255.18570760003058,255.67303830001038,255.65524480002932,s,0,,0.47077219997299835,None,K51,117,2025-04-06_20h53.22.436,416_EXPERIMENT_PSYCHOPY_AU2220019_AU2220225,2024.2.4,59.74111785768651,2025-04-06 20h56.33.237654 +0530,
surprise_upper_blur.jpg,s,105,3,17,f,0,0.6879324999754317,None,17,3,105,4,255.67303830001038,,,,,,,,,,,,,,,,255.66820100002224,255.67303830001038,257.1689823999768,257.1689823999768,257.18603859998984,257.6692864000215,257.87150890001794,f,0,,0.6879324999754317,None,K51,117,2025-04-06_20h53.22.436,416_EXPERIMENT_PSYCHOPY_AU2220019_AU2220225,2024.2.4,59.74111785768651,2025-04-06 20h56.33.237654 +0530,
surprise.jpg,s,106,4,17,s,1,0.4700596999609843,None,17,4,106,1,257.8910218999954,,,,,,,,,,,,,,,,257.88541540002916,257.8910218999954,259.38560969999526,259.38560969999526,259.40206519997446,259.8982050999766,259.87599000002956,s,1,,0.4700596999609843,None,K51,117,2025-04-06_20h53.22.436,416_EXPERIMENT_PSYCHOPY_AU2220019_AU2220225,2024.2.4,59.74111785768651,2025-04-06 20h56.33.237654 +0530,
fear_upper_blur.jpg,f,107,5,17,f,1,0.2830102000152692,None,17,5,107,2,259.8982050999766,,,,,,,,,,,,,,,,259.8932249000063,259.8982050999766,261.3856248999946,261.3856248999946,261.4026685000281,,261.67748409998603,f,1,,0.2830102000152692,None,K51,117,2025-04-06_20h53.22.436,416_EXPERIMENT_PSYCHOPY_AU2220019_AU2220225,2024.2.4,59.74111785768651,2025-04-06 20h56.33.237654 +0530,
surprise_upper_blur.jpg,s,108,0,18,f,0,0.451027300034184,None,18,0,108,4,261.71645940002054,,,,,,,,,,,,,,,,261.7064885,261.71645940002054,263.18583309999667,263.18583309999667,263.21911060001,,263.65447940002196,f,0,,0.451027300034184,None,K51,117,2025-04-06_20h53.22.436,416_EXPERIMENT_PSYCHOPY_AU2220019_AU2220225,2024.2.4,59.74111785768651,2025-04-06 20h56.33.237654 +0530,
fear.jpg,f,109,1,18,s,0,0.6001858999952674,None,18,1,109,0,263.68777640000917,,,,,,,,,,,,,,,,263.6770692000282,263.68777640000917,265.1690980999847,265.1690980999847,265.2020484000095,265.6682917000144,265.7785118999891,s,0,,0.6001858999952674,None,K51,117,2025-04-06_20h53.22.436,416_EXPERIMENT_PSYCHOPY_AU2220019_AU2220225,2024.2.4,59.74111785768651,2025-04-06 20h56.33.237654 +0530,
surprise_lower_blur.jpg,s,110,2,18,s,1,0.5652063000015914,None,18,2,110,5,265.8157086999854,,,,,,,,,,,,,,,,265.8055674000061,265.8157086999854,267.2865278000245,267.2865278000245,267.31855249998625,267.78600030002417,267.85820780001814,s,1,,0.5652063000015914,None,K51,117,2025-04-06_20h53.22.436,416_EXPERIMENT_PSYCHOPY_AU2220019_AU2220225,2024.2.4,59.74111785768651,2025-04-06 20h56.33.237654 +0530,
fear_upper_blur.jpg,f,111,3,18,f,1,0.5225946999853477,None,18,3,111,2,267.87904999998864,,,,,,,,,,,,,,,,267.8735041000182,267.87904999998864,269.36955240002135,269.36955240002135,269.3856460999814,269.8684305999777,269.9041143999784,f,1,,0.5225946999853477,None,K51,117,2025-04-06_20h53.22.436,416_EXPERIMENT_PSYCHOPY_AU2220019_AU2220225,2024.2.4,59.74111785768651,2025-04-06 20h56.33.237654 +0530,
surprise.jpg,s,112,4,18,s,1,0.580826600024011,None,18,4,112,1,269.9228674999904,,,,,,,,,,,,,,,,269.917898899992,269.9228674999904,271.4193795999745,271.4193795999745,271.43584869999904,271.91823740000837,272.00463699997636,s,1,,0.580826600024011,None,K51,117,2025-04-06_20h53.22.436,416_EXPERIMENT_PSYCHOPY_AU2220019_AU2220225,2024.2.4,59.74111785768651,2025-04-06 20h56.33.237654 +0530,
fear_lower_blur.jpg,f,113,5,18,f,1,0.5455879999790341,None,18,5,113,3,272.02193049999187,,,,,,,,,,,,,,,,272.0173345999792,272.02193049999187,273.519036600017,273.519036600017,273.5355440999847,274.0183263000217,274.07015689997934,f,1,,0.5455879999790341,None,K51,117,2025-04-06_20h53.22.436,416_EXPERIMENT_PSYCHOPY_AU2220019_AU2220225,2024.2.4,59.74111785768651,2025-04-06 20h56.33.237654 +0530,
surprise_lower_blur.jpg,s,114,0,19,s,1,0.4001451000222005,None,19,0,114,5,274.08846669999184,,,,,,,,,,,,,,,,274.0835839000065,274.08846669999184,275.5855574000161,275.5855574000161,275.60192769998685,,275.9894605000154,s,1,,0.4001451000222005,None,K51,117,2025-04-06_20h53.22.436,416_EXPERIMENT_PSYCHOPY_AU2220019_AU2220225,2024.2.4,59.74111785768651,2025-04-06 20h56.33.237654 +0530,
fear_upper_blur.jpg,f,115,1,19,f,1,0.5082729000132531,None,19,1,115,2,276.00775129999965,,,,,,,,,,,,,,,,276.00246579997474,276.00775129999965,277.50261040002806,277.50261040002806,277.51890369999455,278.00276800000574,278.02388679998694,f,1,,0.5082729000132531,None,K51,117,2025-04-06_20h53.22.436,416_EXPERIMENT_PSYCHOPY_AU2220019_AU2220225,2024.2.4,59.74111785768651,2025-04-06 20h56.33.237654 +0530,
fear_lower_blur.jpg,f,116,2,19,s,0,0.6317211000132374,None,19,2,116,3,278.06235339998966,,,,,,,,,,,,,,,,278.05245999997715,278.06235339998966,279.53614340000786,279.53614340000786,279.5694499000092,280.03536899999017,280.17216750001535,s,0,,0.6317211000132374,None,K51,117,2025-04-06_20h53.22.436,416_EXPERIMENT_PSYCHOPY_AU2220019_AU2220225,2024.2.4,59.74111785768651,2025-04-06 20h56.33.237654 +0530,
surprise_upper_blur.jpg,s,117,3,19,f,0,0.478344900009688,None,19,3,117,4,280.1903019999736,,,,,,,,,,,,,,,,280.18515680002747,280.1903019999736,281.68569940002635,281.68569940002635,281.70224309997866,282.21564389998093,282.1755124999909,f,0,,0.478344900009688,None,K51,117,2025-04-06_20h53.22.436,416_EXPERIMENT_PSYCHOPY_AU2220019_AU2220225,2024.2.4,59.74111785768651,2025-04-06 20h56.33.237654 +0530,
surprise.jpg,s,118,4,19,f,0,0.6446106000221334,None,19,4,118,1,282.21564389998093,,,,,,,,,,,,,,,,282.2055180000025,282.21564389998093,283.68583630002104,283.68583630002104,283.71897520002676,284.1852599999984,284.33615809999174,f,0,,0.6446106000221334,None,K51,117,2025-04-06_20h53.22.436,416_EXPERIMENT_PSYCHOPY_AU2220019_AU2220225,2024.2.4,59.74111785768651,2025-04-06 20h56.33.237654 +0530,
fear.jpg,f,119,5,19,s,0,0.5575569000211544,None,19,5,119,0,284.3543925000122,,,,,,,,,,,,,,,,284.34938520001015,284.3543925000122,285.83628119999776,285.83628119999776,285.86929960001726,286.3350243999739,286.4040130000212,s,0,,0.5575569000211544,None,K51,117,2025-04-06_20h53.22.436,416_EXPERIMENT_PSYCHOPY_AU2220019_AU2220225,2024.2.4,59.74111785768651,2025-04-06 20h56.33.237654 +0530,
