stimulus_image,correct_response,thisN,thisTrialN,thisRepN,key_resp.keys,key_resp.corr,key_resp.rt,key_resp.duration,loop.thisRepN,loop.thisTrialN,loop.thisN,loop.thisIndex,thisRow.t,notes,guide.started,instructions.started,ins_resp.started,guide.stopped,ins_resp.keys,ins_resp.rt,ins_resp.duration,guide_2.started,text.started,key_resp_2.started,guide_2.stopped,key_resp_2.keys,key_resp_2.rt,key_resp_2.duration,trial.started,fixation.started,image.started,key_resp.started,fixation.stopped,image.stopped,trial.stopped,loop.key_resp.keys,loop.key_resp.corr,loop.key_resp.rt,loop.key_resp.duration,key_resp.stopped,participant,session,date,expName,psychopyVersion,frameRate,expStart,
,,,,,,,,,,,,,,,0.0052050999365746975,0.024185699876397848,0.024185699876397848,35.1195141999051,space,35.07160839997232,None,,,,,,,,,,,,,,,,,,,,KA16,109,2025-04-01_21h25.03.629,416_EXPERIMENT_PSYCHOPY_AU2220019_AU2220225,2024.2.4,60.147843460655025,2025-04-01 21h25.21.651295 +0530,
,,,,,,,,,,,,,,,,,,,,,,35.119584399973974,35.12653449992649,35.12653449992649,42.07794109988026,space,6.946101699955761,None,,,,,,,,,,,,,KA16,109,2025-04-01_21h25.03.629,416_EXPERIMENT_PSYCHOPY_AU2220019_AU2220225,2024.2.4,60.147843460655025,2025-04-01 21h25.21.651295 +0530,
surprise_lower_blur.jpg,s,0,0,0,None,0,,,0,0,0,5,42.185893799876794,,,,,,,,,,,,,,,,42.17667379998602,42.185893799876794,43.60360429994762,43.60360429994762,43.69133109995164,44.10908319987357,44.34081089985557,None,0,,,,KA16,109,2025-04-01_21h25.03.629,416_EXPERIMENT_PSYCHOPY_AU2220019_AU2220225,2024.2.4,60.147843460655025,2025-04-01 21h25.21.651295 +0530,
fear_upper_blur.jpg,f,1,1,0,None,0,,,0,1,1,2,44.358158899936825,,,,,,,,,,,,,,,,44.353223599959165,44.358158899936825,45.84248599992134,45.84248599992134,45.85866789985448,46.341937199933454,46.590455000055954,None,0,,,,KA16,109,2025-04-01_21h25.03.629,416_EXPERIMENT_PSYCHOPY_AU2220019_AU2220225,2024.2.4,60.147843460655025,2025-04-01 21h25.21.651295 +0530,
surprise_upper_blur.jpg,s,2,2,0,s,1,0.4174426000099629,None,0,2,2,4,46.608185400022194,,,,,,,,,,,,,,,,46.602271100040525,46.608185400022194,48.09181719995104,48.09181719995104,48.108982200035825,,48.51262059994042,s,1,0.4174426000099629,None,,KA16,109,2025-04-01_21h25.03.629,416_EXPERIMENT_PSYCHOPY_AU2220019_AU2220225,2024.2.4,60.147843460655025,2025-04-01 21h25.21.651295 +0530,
fear_lower_blur.jpg,f,3,3,0,f,1,0.6289200999308378,None,0,3,3,3,48.53161389986053,,,,,,,,,,,,,,,,48.52603519987315,48.53161389986053,50.02386359986849,50.02386359986849,50.04038339992985,50.52358899987303,50.65831770002842,f,1,0.6289200999308378,None,,KA16,109,2025-04-01_21h25.03.629,416_EXPERIMENT_PSYCHOPY_AU2220019_AU2220225,2024.2.4,60.147843460655025,2025-04-01 21h25.21.651295 +0530,
surprise.jpg,s,4,4,0,s,1,0.41580590000376105,None,0,4,4,1,50.67748549999669,,,,,,,,,,,,,,,,50.671586599899456,50.67748549999669,52.159078900003806,52.159078900003806,52.19242640002631,,52.57844369998202,s,1,0.41580590000376105,None,,KA16,109,2025-04-01_21h25.03.629,416_EXPERIMENT_PSYCHOPY_AU2220019_AU2220225,2024.2.4,60.147843460655025,2025-04-01 21h25.21.651295 +0530,
fear.jpg,f,5,5,0,s,0,0.3770162002183497,None,0,5,5,0,52.59694359987043,,,,,,,,,,,,,,,,52.59154469985515,52.59694359987043,54.09285259991884,54.09285259991884,54.109053099993616,,54.47744009993039,s,0,0.3770162002183497,None,,KA16,109,2025-04-01_21h25.03.629,416_EXPERIMENT_PSYCHOPY_AU2220019_AU2220225,2024.2.4,60.147843460655025,2025-04-01 21h25.21.651295 +0530,
fear.jpg,f,6,0,1,s,0,0.3052428001537919,None,1,0,6,0,54.49920940003358,,,,,,,,,,,,,,,,54.49271270004101,54.49920940003358,55.99251340003684,55.99251340003684,56.00856169988401,,56.31124980002642,s,0,0.3052428001537919,None,,KA16,109,2025-04-01_21h25.03.629,416_EXPERIMENT_PSYCHOPY_AU2220019_AU2220225,2024.2.4,60.147843460655025,2025-04-01 21h25.21.651295 +0530,
fear_upper_blur.jpg,f,7,1,1,f,1,0.4027813000138849,None,1,1,7,2,56.32994970004074,,,,,,,,,,,,,,,,56.32381649990566,56.32994970004074,57.82390680001117,57.82390680001117,57.84012599987909,,58.244086399907246,f,1,0.4027813000138849,None,,KA16,109,2025-04-01_21h25.03.629,416_EXPERIMENT_PSYCHOPY_AU2220019_AU2220225,2024.2.4,60.147843460655025,2025-04-01 21h25.21.651295 +0530,
surprise_lower_blur.jpg,s,8,2,1,s,1,0.2617070998530835,None,1,2,8,5,58.26514509995468,,,,,,,,,,,,,,,,58.25737769994885,58.26514509995468,59.75899839983322,59.75899839983322,59.77571829990484,,60.02855039993301,s,1,0.2617070998530835,None,,KA16,109,2025-04-01_21h25.03.629,416_EXPERIMENT_PSYCHOPY_AU2220019_AU2220225,2024.2.4,60.147843460655025,2025-04-01 21h25.21.651295 +0530,
surprise.jpg,s,9,3,1,s,1,0.3802044000476599,None,1,3,9,1,60.048069699900225,,,,,,,,,,,,,,,,60.041858199983835,60.048069699900225,61.542896299855784,61.542896299855784,61.55935029988177,,61.927150999894366,s,1,0.3802044000476599,None,,KA16,109,2025-04-01_21h25.03.629,416_EXPERIMENT_PSYCHOPY_AU2220019_AU2220225,2024.2.4,60.147843460655025,2025-04-01 21h25.21.651295 +0530,
surprise_upper_blur.jpg,s,10,4,1,f,0,0.2701279998291284,None,1,4,10,4,61.94577250001021,,,,,,,,,,,,,,,,61.93967100000009,61.94577250001021,63.426501399837434,63.426501399837434,63.45942660002038,,63.7117957000155,f,0,0.2701279998291284,None,,KA16,109,2025-04-01_21h25.03.629,416_EXPERIMENT_PSYCHOPY_AU2220019_AU2220225,2024.2.4,60.147843460655025,2025-04-01 21h25.21.651295 +0530,
fear_lower_blur.jpg,f,11,5,1,s,0,0.33939060010015965,None,1,5,11,3,63.732265200000256,,,,,,,,,,,,,,,,63.724614299833775,63.732265200000256,65.22418999997899,65.22418999997899,65.24084619991481,,65.57881930004805,s,0,0.33939060010015965,None,,KA16,109,2025-04-01_21h25.03.629,416_EXPERIMENT_PSYCHOPY_AU2220019_AU2220225,2024.2.4,60.147843460655025,2025-04-01 21h25.21.651295 +0530,
fear_upper_blur.jpg,f,12,0,2,f,1,0.32615229999646544,None,2,0,12,2,65.59743590001017,,,,,,,,,,,,,,,,65.59147879993543,65.59743590001017,67.09297710005194,67.09297710005194,67.10981709999032,,67.4284504998941,f,1,0.32615229999646544,None,,KA16,109,2025-04-01_21h25.03.629,416_EXPERIMENT_PSYCHOPY_AU2220019_AU2220225,2024.2.4,60.147843460655025,2025-04-01 21h25.21.651295 +0530,
surprise.jpg,s,13,1,2,f,0,0.2191732998471707,None,2,1,13,1,67.44703929987736,,,,,,,,,,,,,,,,67.44251399999484,67.44703929987736,68.94305190001614,68.94305190001614,68.95954379998147,,69.16576809994876,f,0,0.2191732998471707,None,,KA16,109,2025-04-01_21h25.03.629,416_EXPERIMENT_PSYCHOPY_AU2220019_AU2220225,2024.2.4,60.147843460655025,2025-04-01 21h25.21.651295 +0530,
fear.jpg,f,14,2,2,s,0,0.3199386999476701,None,2,2,14,0,69.18584689986892,,,,,,,,,,,,,,,,69.17952669993974,69.18584689986892,70.67639299994335,70.67639299994335,70.69260199996643,,71.01067200000398,s,0,0.3199386999476701,None,,KA16,109,2025-04-01_21h25.03.629,416_EXPERIMENT_PSYCHOPY_AU2220019_AU2220225,2024.2.4,60.147843460655025,2025-04-01 21h25.21.651295 +0530,
surprise_lower_blur.jpg,s,15,3,2,s,1,0.40112879988737404,None,2,3,15,5,71.02946450002491,,,,,,,,,,,,,,,,71.02338279993273,71.02946450002491,72.52644649986178,72.52644649986178,72.54261650005355,,72.94495219993405,s,1,0.40112879988737404,None,,KA16,109,2025-04-01_21h25.03.629,416_EXPERIMENT_PSYCHOPY_AU2220019_AU2220225,2024.2.4,60.147843460655025,2025-04-01 21h25.21.651295 +0530,
fear_lower_blur.jpg,f,16,4,2,f,1,0.5815074997954071,None,2,4,16,3,72.96352260001004,,,,,,,,,,,,,,,,72.95830549998209,72.96352260001004,74.45805619983003,74.45805619983003,74.47446659998968,74.95766109996475,75.04271329985932,f,1,0.5815074997954071,None,,KA16,109,2025-04-01_21h25.03.629,416_EXPERIMENT_PSYCHOPY_AU2220019_AU2220225,2024.2.4,60.147843460655025,2025-04-01 21h25.21.651295 +0530,
surprise_upper_blur.jpg,s,17,5,2,f,0,0.38863059994764626,None,2,5,17,4,75.05886429990642,,,,,,,,,,,,,,,,75.05350669985637,75.05886429990642,76.5422569999937,76.5422569999937,76.5601355000399,,76.94571239990182,f,0,0.38863059994764626,None,,KA16,109,2025-04-01_21h25.03.629,416_EXPERIMENT_PSYCHOPY_AU2220019_AU2220225,2024.2.4,60.147843460655025,2025-04-01 21h25.21.651295 +0530,
fear_upper_blur.jpg,f,18,0,3,f,1,0.39262559986673295,None,3,0,18,2,76.96451159985736,,,,,,,,,,,,,,,,76.95882950001396,76.96451159985736,78.45798459998332,78.45798459998332,78.47668999992311,,78.8614276999142,f,1,0.39262559986673295,None,,KA16,109,2025-04-01_21h25.03.629,416_EXPERIMENT_PSYCHOPY_AU2220019_AU2220225,2024.2.4,60.147843460655025,2025-04-01 21h25.21.651295 +0530,
surprise_upper_blur.jpg,s,19,1,3,f,0,0.389439299935475,None,3,1,19,4,78.8805837999098,,,,,,,,,,,,,,,,78.87486039986834,78.8805837999098,80.37478559999727,80.37478559999727,80.39098419994116,,80.77835649996996,f,0,0.389439299935475,None,,KA16,109,2025-04-01_21h25.03.629,416_EXPERIMENT_PSYCHOPY_AU2220019_AU2220225,2024.2.4,60.147843460655025,2025-04-01 21h25.21.651295 +0530,
surprise_lower_blur.jpg,s,20,2,3,f,0,0.40093280002474785,None,3,2,20,5,80.79658349999227,,,,,,,,,,,,,,,,80.79109929990955,80.79658349999227,82.29340049996972,82.29340049996972,82.31015109992586,,82.71158579993062,f,0,0.40093280002474785,None,,KA16,109,2025-04-01_21h25.03.629,416_EXPERIMENT_PSYCHOPY_AU2220019_AU2220225,2024.2.4,60.147843460655025,2025-04-01 21h25.21.651295 +0530,
fear_lower_blur.jpg,f,21,3,3,s,0,0.31701560015790164,None,3,3,21,3,82.7301884999033,,,,,,,,,,,,,,,,82.72476470004767,82.7301884999033,84.2267964000348,84.2267964000348,84.24316079984419,,84.54686939995736,s,0,0.31701560015790164,None,,KA16,109,2025-04-01_21h25.03.629,416_EXPERIMENT_PSYCHOPY_AU2220019_AU2220225,2024.2.4,60.147843460655025,2025-04-01 21h25.21.651295 +0530,
surprise.jpg,s,22,4,3,s,1,0.49548510019667447,None,3,4,22,1,84.56725029996596,,,,,,,,,,,,,,,,84.56161529989913,84.56725029996596,86.05926899984479,86.05926899984479,86.07607219996862,86.55949190002866,86.56159659987316,s,1,0.49548510019667447,None,,KA16,109,2025-04-01_21h25.03.629,416_EXPERIMENT_PSYCHOPY_AU2220019_AU2220225,2024.2.4,60.147843460655025,2025-04-01 21h25.21.651295 +0530,
fear.jpg,f,23,5,3,s,0,0.2997519997879863,None,3,5,23,0,86.5828372000251,,,,,,,,,,,,,,,,86.57660429994576,86.5828372000251,88.07305100001395,88.07305100001395,88.09228409989737,,88.38128229998983,s,0,0.2997519997879863,None,,KA16,109,2025-04-01_21h25.03.629,416_EXPERIMENT_PSYCHOPY_AU2220019_AU2220225,2024.2.4,60.147843460655025,2025-04-01 21h25.21.651295 +0530,
fear_lower_blur.jpg,f,24,0,4,f,1,0.2581832001451403,None,4,0,24,3,88.40046389983036,,,,,,,,,,,,,,,,88.3942566998303,88.40046389983036,89.89295629994012,89.89295629994012,89.91027530003339,,90.16079899994656,f,1,0.2581832001451403,None,,KA16,109,2025-04-01_21h25.03.629,416_EXPERIMENT_PSYCHOPY_AU2220019_AU2220225,2024.2.4,60.147843460655025,2025-04-01 21h25.21.651295 +0530,
surprise_lower_blur.jpg,s,25,1,4,f,0,0.2774908998981118,None,4,1,25,5,90.17940289992839,,,,,,,,,,,,,,,,90.17375559988432,90.17940289992839,91.67607419984415,91.67607419984415,91.6924061998725,,91.95866420003586,f,0,0.2774908998981118,None,,KA16,109,2025-04-01_21h25.03.629,416_EXPERIMENT_PSYCHOPY_AU2220019_AU2220225,2024.2.4,60.147843460655025,2025-04-01 21h25.21.651295 +0530,
fear_upper_blur.jpg,f,26,2,4,f,1,0.3628046000376344,None,4,2,26,2,91.97652080003172,,,,,,,,,,,,,,,,91.97093939990737,91.97652080003172,93.47343899984844,93.47343899984844,93.49219579994678,,93.84508430003189,f,1,0.3628046000376344,None,,KA16,109,2025-04-01_21h25.03.629,416_EXPERIMENT_PSYCHOPY_AU2220019_AU2220225,2024.2.4,60.147843460655025,2025-04-01 21h25.21.651295 +0530,
surprise.jpg,s,27,3,4,s,1,0.33272280008532107,None,4,3,27,1,93.86230319994502,,,,,,,,,,,,,,,,93.85695989988744,93.86230319994502,95.35950789996423,95.35950789996423,95.37547399988398,,95.69577379990369,s,1,0.33272280008532107,None,,KA16,109,2025-04-01_21h25.03.629,416_EXPERIMENT_PSYCHOPY_AU2220019_AU2220225,2024.2.4,60.147843460655025,2025-04-01 21h25.21.651295 +0530,
fear.jpg,f,28,4,4,f,1,0.32470570015721023,None,4,4,28,0,95.71514549991116,,,,,,,,,,,,,,,,95.70969489985146,95.71514549991116,97.20769539987668,97.20769539987668,97.22476929984987,,97.54459469998255,f,1,0.32470570015721023,None,,KA16,109,2025-04-01_21h25.03.629,416_EXPERIMENT_PSYCHOPY_AU2220019_AU2220225,2024.2.4,60.147843460655025,2025-04-01 21h25.21.651295 +0530,
surprise_upper_blur.jpg,s,29,5,4,s,1,0.23198870010674,None,4,5,29,4,97.56291490001604,,,,,,,,,,,,,,,,97.55795679986477,97.56291490001604,99.05930279986933,99.05930279986933,99.07619129982777,,99.29497899999842,s,1,0.23198870010674,None,,KA16,109,2025-04-01_21h25.03.629,416_EXPERIMENT_PSYCHOPY_AU2220019_AU2220225,2024.2.4,60.147843460655025,2025-04-01 21h25.21.651295 +0530,
fear.jpg,f,30,0,5,s,0,0.2672782998997718,None,5,0,30,0,99.31439900002442,,,,,,,,,,,,,,,,99.30911549995653,99.31439900002442,100.80648369994015,100.80648369994015,100.82495379983447,,101.07707829982974,s,0,0.2672782998997718,None,,KA16,109,2025-04-01_21h25.03.629,416_EXPERIMENT_PSYCHOPY_AU2220019_AU2220225,2024.2.4,60.147843460655025,2025-04-01 21h25.21.651295 +0530,
surprise_lower_blur.jpg,s,31,1,5,f,0,0.24116169987246394,None,5,1,31,5,101.09520899993367,,,,,,,,,,,,,,,,101.09014769992791,101.09520899993367,102.59281339985318,102.59281339985318,102.60933550004847,,102.84427969995886,f,0,0.24116169987246394,None,,KA16,109,2025-04-01_21h25.03.629,416_EXPERIMENT_PSYCHOPY_AU2220019_AU2220225,2024.2.4,60.147843460655025,2025-04-01 21h25.21.651295 +0530,
surprise.jpg,s,32,2,5,f,0,0.25019769999198616,None,5,2,32,1,102.86447050003335,,,,,,,,,,,,,,,,102.8591010000091,102.86447050003335,104.35909549985081,104.35909549985081,104.37613509991206,,104.61283260001801,f,0,0.25019769999198616,None,,KA16,109,2025-04-01_21h25.03.629,416_EXPERIMENT_PSYCHOPY_AU2220019_AU2220225,2024.2.4,60.147843460655025,2025-04-01 21h25.21.651295 +0530,
fear_upper_blur.jpg,f,33,3,5,s,0,0.39487430010922253,None,5,3,33,2,104.6314864999149,,,,,,,,,,,,,,,,104.62566929985769,104.6314864999149,106.12521379999816,106.12521379999816,106.14047959982418,,106.52827210002579,s,0,0.39487430010922253,None,,KA16,109,2025-04-01_21h25.03.629,416_EXPERIMENT_PSYCHOPY_AU2220019_AU2220225,2024.2.4,60.147843460655025,2025-04-01 21h25.21.651295 +0530,
fear_lower_blur.jpg,f,34,4,5,f,1,0.4679191999603063,None,5,4,34,3,106.54683079989627,,,,,,,,,,,,,,,,106.54096729983576,106.54683079989627,108.0430240998976,108.0430240998976,108.05915459990501,,108.52497219992802,f,1,0.4679191999603063,None,,KA16,109,2025-04-01_21h25.03.629,416_EXPERIMENT_PSYCHOPY_AU2220019_AU2220225,2024.2.4,60.147843460655025,2025-04-01 21h25.21.651295 +0530,
surprise_upper_blur.jpg,s,35,5,5,s,1,0.2172862000297755,None,5,5,35,4,108.54300799989142,,,,,,,,,,,,,,,,108.53780009993352,108.54300799989142,110.02549969987012,110.02549969987012,110.04222279996611,,110.24633649992757,s,1,0.2172862000297755,None,,KA16,109,2025-04-01_21h25.03.629,416_EXPERIMENT_PSYCHOPY_AU2220019_AU2220225,2024.2.4,60.147843460655025,2025-04-01 21h25.21.651295 +0530,
surprise.jpg,s,36,0,6,f,0,0.06951189995743334,None,6,0,36,1,110.26625699992292,,,,,,,,,,,,,,,,110.26021909993142,110.26625699992292,111.75938820000738,111.75938820000738,111.77546379994601,,111.8442249998916,f,0,0.06951189995743334,None,,KA16,109,2025-04-01_21h25.03.629,416_EXPERIMENT_PSYCHOPY_AU2220019_AU2220225,2024.2.4,60.147843460655025,2025-04-01 21h25.21.651295 +0530,
fear_lower_blur.jpg,f,37,1,6,s,0,None,None,6,1,37,3,111.85982550005428,,,,,,,,,,,,,,,,111.85415529995225,111.85982550005428,113.35931049985811,113.35931049985811,113.35931049985811,,113.49406849988736,s,0,None,None,,KA16,109,2025-04-01_21h25.03.629,416_EXPERIMENT_PSYCHOPY_AU2220019_AU2220225,2024.2.4,60.147843460655025,2025-04-01 21h25.21.651295 +0530,
fear.jpg,f,38,2,6,f,1,0.21031809994019568,None,6,2,38,0,113.51444009994157,,,,,,,,,,,,,,,,113.50830899993889,113.51444009994157,115.00905069988221,115.00905069988221,115.02593560004607,,115.22764659998938,f,1,0.21031809994019568,None,,KA16,109,2025-04-01_21h25.03.629,416_EXPERIMENT_PSYCHOPY_AU2220019_AU2220225,2024.2.4,60.147843460655025,2025-04-01 21h25.21.651295 +0530,
surprise_lower_blur.jpg,s,39,3,6,s,1,0.24533359985798597,None,6,3,39,5,115.24559119995683,,,,,,,,,,,,,,,,115.24048639996909,115.24559119995683,116.74251329991966,116.74251329991966,116.75895899999887,,116.99462480004877,s,1,0.24533359985798597,None,,KA16,109,2025-04-01_21h25.03.629,416_EXPERIMENT_PSYCHOPY_AU2220019_AU2220225,2024.2.4,60.147843460655025,2025-04-01 21h25.21.651295 +0530,
fear_upper_blur.jpg,f,40,4,6,s,0,0.10215729987248778,None,6,4,40,2,117.01314569986425,,,,,,,,,,,,,,,,117.00764469988644,117.01314569986425,118.5085183000192,118.5085183000192,118.52594209997915,,118.62759719998576,s,0,0.10215729987248778,None,,KA16,109,2025-04-01_21h25.03.629,416_EXPERIMENT_PSYCHOPY_AU2220019_AU2220225,2024.2.4,60.147843460655025,2025-04-01 21h25.21.651295 +0530,
surprise_upper_blur.jpg,s,41,5,6,s,1,0.284046099986881,None,6,5,41,4,118.64655139995739,,,,,,,,,,,,,,,,118.64048930001445,118.64655139995739,120.14256159984507,120.14256159984507,120.15898029995151,,120.4301130999811,s,1,0.284046099986881,None,,KA16,109,2025-04-01_21h25.03.629,416_EXPERIMENT_PSYCHOPY_AU2220019_AU2220225,2024.2.4,60.147843460655025,2025-04-01 21h25.21.651295 +0530,
fear.jpg,f,42,0,7,s,0,0.5643554001580924,None,7,0,42,0,120.44924860005267,,,,,,,,,,,,,,,,120.44408819987439,120.44924860005267,121.94245269987732,121.94245269987732,121.9586624999065,122.44229379994795,122.5118992999196,s,0,0.5643554001580924,None,,KA16,109,2025-04-01_21h25.03.629,416_EXPERIMENT_PSYCHOPY_AU2220019_AU2220225,2024.2.4,60.147843460655025,2025-04-01 21h25.21.651295 +0530,
fear_lower_blur.jpg,f,43,1,7,f,1,0.2684428000357002,None,7,1,43,3,122.53073879983276,,,,,,,,,,,,,,,,122.52491179993376,122.53073879983276,124.02542049996555,124.02542049996555,124.041295300005,,124.30946390004829,f,1,0.2684428000357002,None,,KA16,109,2025-04-01_21h25.03.629,416_EXPERIMENT_PSYCHOPY_AU2220019_AU2220225,2024.2.4,60.147843460655025,2025-04-01 21h25.21.651295 +0530,
fear_upper_blur.jpg,f,44,2,7,f,1,0.4811792999971658,None,7,2,44,2,124.32625090004876,,,,,,,,,,,,,,,,124.32021929998882,124.32625090004876,125.82573010004126,125.82573010004126,125.82573010004126,,126.3104266000446,f,1,0.4811792999971658,None,,KA16,109,2025-04-01_21h25.03.629,416_EXPERIMENT_PSYCHOPY_AU2220019_AU2220225,2024.2.4,60.147843460655025,2025-04-01 21h25.21.651295 +0530,
surprise_lower_blur.jpg,s,45,3,7,s,1,0.2895486999768764,None,7,3,45,5,126.32668099994771,,,,,,,,,,,,,,,,126.3206183000002,126.32668099994771,127.8262261999771,127.8262261999771,127.8262261999771,,128.12701609986834,s,1,0.2895486999768764,None,,KA16,109,2025-04-01_21h25.03.629,416_EXPERIMENT_PSYCHOPY_AU2220019_AU2220225,2024.2.4,60.147843460655025,2025-04-01 21h25.21.651295 +0530,
surprise_upper_blur.jpg,s,46,4,7,f,0,0.37998429988510907,None,7,4,46,4,128.14630799996667,,,,,,,,,,,,,,,,128.14074329985306,128.14630799996667,129.64218009985052,129.64218009985052,129.65906029986218,,130.02839049999602,f,0,0.37998429988510907,None,,KA16,109,2025-04-01_21h25.03.629,416_EXPERIMENT_PSYCHOPY_AU2220019_AU2220225,2024.2.4,60.147843460655025,2025-04-01 21h25.21.651295 +0530,
surprise.jpg,s,47,5,7,f,0,0.3437579001765698,None,7,5,47,1,130.04786970000714,,,,,,,,,,,,,,,,130.04210079996847,130.04786970000714,131.54236910003237,131.54236910003237,131.55847139982507,,131.89431459992193,f,0,0.3437579001765698,None,,KA16,109,2025-04-01_21h25.03.629,416_EXPERIMENT_PSYCHOPY_AU2220019_AU2220225,2024.2.4,60.147843460655025,2025-04-01 21h25.21.651295 +0530,
surprise.jpg,s,48,0,8,s,1,0.40024000010453165,None,8,0,48,1,131.913325099973,,,,,,,,,,,,,,,,131.90766120003536,131.913325099973,133.40709390002303,133.40709390002303,133.4252774999477,,133.81129499990493,s,1,0.40024000010453165,None,,KA16,109,2025-04-01_21h25.03.629,416_EXPERIMENT_PSYCHOPY_AU2220019_AU2220225,2024.2.4,60.147843460655025,2025-04-01 21h25.21.651295 +0530,
fear_lower_blur.jpg,f,49,1,8,s,0,0.3836703000124544,None,8,1,49,3,133.82716890005395,,,,,,,,,,,,,,,,133.8218187999446,133.82716890005395,135.32622010004707,135.32622010004707,135.34237399999984,,135.71301959990524,s,0,0.3836703000124544,None,,KA16,109,2025-04-01_21h25.03.629,416_EXPERIMENT_PSYCHOPY_AU2220019_AU2220225,2024.2.4,60.147843460655025,2025-04-01 21h25.21.651295 +0530,
fear_upper_blur.jpg,f,50,2,8,s,0,0.2728191998321563,None,8,2,50,2,135.7312849999871,,,,,,,,,,,,,,,,135.7261822000146,135.7312849999871,137.22364889993332,137.22364889993332,137.24002099991776,,137.511043000035,s,0,0.2728191998321563,None,,KA16,109,2025-04-01_21h25.03.629,416_EXPERIMENT_PSYCHOPY_AU2220019_AU2220225,2024.2.4,60.147843460655025,2025-04-01 21h25.21.651295 +0530,
fear.jpg,f,51,3,8,s,0,0.5177939001005143,None,8,3,51,0,137.5308399000205,,,,,,,,,,,,,,,,137.52458039997146,137.5308399000205,139.02517269994132,139.02517269994132,139.04212550004013,139.52547189989127,139.54641099995933,s,0,0.5177939001005143,None,,KA16,109,2025-04-01_21h25.03.629,416_EXPERIMENT_PSYCHOPY_AU2220019_AU2220225,2024.2.4,60.147843460655025,2025-04-01 21h25.21.651295 +0530,
surprise_upper_blur.jpg,s,52,4,8,f,0,0.34631369984708726,None,8,4,52,4,139.5653629999142,,,,,,,,,,,,,,,,139.5596658999566,139.5653629999142,141.05909819994122,141.05909819994122,141.07520850002766,,141.41150949988514,f,0,0.34631369984708726,None,,KA16,109,2025-04-01_21h25.03.629,416_EXPERIMENT_PSYCHOPY_AU2220019_AU2220225,2024.2.4,60.147843460655025,2025-04-01 21h25.21.651295 +0530,
surprise_lower_blur.jpg,s,53,5,8,f,0,0.46414769999682903,None,8,5,53,5,141.43071680003777,,,,,,,,,,,,,,,,141.42505829990841,141.43071680003777,142.92443929985166,142.92443929985166,142.9416308000218,,143.39238539990038,f,0,0.46414769999682903,None,,KA16,109,2025-04-01_21h25.03.629,416_EXPERIMENT_PSYCHOPY_AU2220019_AU2220225,2024.2.4,60.147843460655025,2025-04-01 21h25.21.651295 +0530,
fear.jpg,f,54,0,9,s,0,0.5501731999684125,None,9,0,54,0,143.41183989983983,,,,,,,,,,,,,,,,143.40569569985382,143.41183989983983,144.89221600000747,144.89221600000747,144.92540649999864,145.40689360001124,145.45835449988954,s,0,0.5501731999684125,None,,KA16,109,2025-04-01_21h25.03.629,416_EXPERIMENT_PSYCHOPY_AU2220019_AU2220225,2024.2.4,60.147843460655025,2025-04-01 21h25.21.651295 +0530,
fear_lower_blur.jpg,f,55,1,9,f,1,0.429287499981001,None,9,1,55,3,145.47630229988135,,,,,,,,,,,,,,,,145.47067139996216,145.47630229988135,146.95875109988265,146.95875109988265,146.9758158000186,,147.39496789989062,f,1,0.429287499981001,None,,KA16,109,2025-04-01_21h25.03.629,416_EXPERIMENT_PSYCHOPY_AU2220019_AU2220225,2024.2.4,60.147843460655025,2025-04-01 21h25.21.651295 +0530,
surprise_upper_blur.jpg,s,56,2,9,f,0,0.3775818001013249,None,9,2,56,4,147.41452830005437,,,,,,,,,,,,,,,,147.4086167998612,147.41452830005437,148.9090873999521,148.9090873999521,148.92522319988348,,149.29399929987267,f,0,0.3775818001013249,None,,KA16,109,2025-04-01_21h25.03.629,416_EXPERIMENT_PSYCHOPY_AU2220019_AU2220225,2024.2.4,60.147843460655025,2025-04-01 21h25.21.651295 +0530,
fear_upper_blur.jpg,f,57,3,9,f,1,0.3919160000514239,None,9,3,57,2,149.31235120003112,,,,,,,,,,,,,,,,149.30699239997193,149.31235120003112,150.8092354000546,150.8092354000546,150.82530370005406,,151.210422599921,f,1,0.3919160000514239,None,,KA16,109,2025-04-01_21h25.03.629,416_EXPERIMENT_PSYCHOPY_AU2220019_AU2220225,2024.2.4,60.147843460655025,2025-04-01 21h25.21.651295 +0530,
surprise.jpg,s,58,4,9,f,0,0.37043190002441406,None,9,4,58,1,151.22957920003682,,,,,,,,,,,,,,,,151.2241525000427,151.22957920003682,152.7251963999588,152.7251963999588,152.74265919998288,,153.1110310999211,f,0,0.37043190002441406,None,,KA16,109,2025-04-01_21h25.03.629,416_EXPERIMENT_PSYCHOPY_AU2220019_AU2220225,2024.2.4,60.147843460655025,2025-04-01 21h25.21.651295 +0530,
surprise_lower_blur.jpg,s,59,5,9,s,1,0.4411567999050021,None,9,5,59,5,153.12904140003957,,,,,,,,,,,,,,,,153.12305689998902,153.12904140003957,154.6259008999914,154.6259008999914,154.64300150005147,,155.07504889997654,s,1,0.4411567999050021,None,,KA16,109,2025-04-01_21h25.03.629,416_EXPERIMENT_PSYCHOPY_AU2220019_AU2220225,2024.2.4,60.147843460655025,2025-04-01 21h25.21.651295 +0530,
surprise.jpg,s,60,0,10,s,1,0.41933290008455515,None,10,0,60,1,155.09329869993962,,,,,,,,,,,,,,,,155.08759439992718,155.09329869993962,156.57551250001416,156.57551250001416,156.60713579994626,,157.01174649992026,s,1,0.41933290008455515,None,,KA16,109,2025-04-01_21h25.03.629,416_EXPERIMENT_PSYCHOPY_AU2220019_AU2220225,2024.2.4,60.147843460655025,2025-04-01 21h25.21.651295 +0530,
fear_lower_blur.jpg,f,61,1,10,f,1,0.5358627000823617,None,10,1,61,3,157.03223149990663,,,,,,,,,,,,,,,,157.02610070002265,157.03223149990663,158.5258166999556,158.5258166999556,158.54213829990476,159.0402991999872,159.0774433000479,f,1,0.5358627000823617,None,,KA16,109,2025-04-01_21h25.03.629,416_EXPERIMENT_PSYCHOPY_AU2220019_AU2220225,2024.2.4,60.147843460655025,2025-04-01 21h25.21.651295 +0530,
fear_upper_blur.jpg,f,62,2,10,f,1,0.5842999999877065,None,10,2,62,2,159.09676710003987,,,,,,,,,,,,,,,,159.09074439993128,159.09676710003987,160.5921993998345,160.5921993998345,160.609028799925,161.09206059994176,161.17986819986254,f,1,0.5842999999877065,None,,KA16,109,2025-04-01_21h25.03.629,416_EXPERIMENT_PSYCHOPY_AU2220019_AU2220225,2024.2.4,60.147843460655025,2025-04-01 21h25.21.651295 +0530,
surprise_lower_blur.jpg,s,63,3,10,f,0,0.48846239992417395,None,10,3,63,5,161.1990362999495,,,,,,,,,,,,,,,,161.1934425998479,161.1990362999495,162.69253239990212,162.69253239990212,162.70890299999155,163.20922659989446,163.19172749994323,f,0,0.48846239992417395,None,,KA16,109,2025-04-01_21h25.03.629,416_EXPERIMENT_PSYCHOPY_AU2220019_AU2220225,2024.2.4,60.147843460655025,2025-04-01 21h25.21.651295 +0530,
surprise_upper_blur.jpg,s,64,4,10,f,0,0.42445799987763166,None,10,4,64,4,163.20922659989446,,,,,,,,,,,,,,,,163.2016985998489,163.20922659989446,164.6926317999605,164.6926317999605,164.70886059990153,,165.1274394998327,f,0,0.42445799987763166,None,,KA16,109,2025-04-01_21h25.03.629,416_EXPERIMENT_PSYCHOPY_AU2220019_AU2220225,2024.2.4,60.147843460655025,2025-04-01 21h25.21.651295 +0530,
fear.jpg,f,65,5,10,s,0,0.5969531999435276,None,10,5,65,0,165.14713329984806,,,,,,,,,,,,,,,,165.1411655000411,165.14713329984806,166.64255129988305,166.64255129988305,166.65930789988488,167.14225869998336,167.2447440000251,s,0,0.5969531999435276,None,,KA16,109,2025-04-01_21h25.03.629,416_EXPERIMENT_PSYCHOPY_AU2220019_AU2220225,2024.2.4,60.147843460655025,2025-04-01 21h25.21.651295 +0530,
surprise_lower_blur.jpg,s,66,0,11,f,0,0.5271703000180423,None,11,0,66,5,167.2632689999882,,,,,,,,,,,,,,,,167.25809779996052,167.2632689999882,168.7590188998729,168.7590188998729,168.77563679986633,169.25918099982664,169.2944990999531,f,0,0.5271703000180423,None,,KA16,109,2025-04-01_21h25.03.629,416_EXPERIMENT_PSYCHOPY_AU2220019_AU2220225,2024.2.4,60.147843460655025,2025-04-01 21h25.21.651295 +0530,
fear.jpg,f,67,1,11,s,0,0.6011641998775303,None,11,1,67,0,169.31413109996356,,,,,,,,,,,,,,,,169.30856249993667,169.31413109996356,170.8070871999953,170.8070871999953,170.82351349992678,171.30653319996782,171.41165130003355,s,0,0.6011641998775303,None,,KA16,109,2025-04-01_21h25.03.629,416_EXPERIMENT_PSYCHOPY_AU2220019_AU2220225,2024.2.4,60.147843460655025,2025-04-01 21h25.21.651295 +0530,
surprise.jpg,s,68,2,11,f,0,0.36512350011616945,None,11,2,68,1,171.43154280004092,,,,,,,,,,,,,,,,171.42555679986253,171.43154280004092,172.92563680000603,172.92563680000603,172.9422930998262,,173.2951719998382,f,0,0.36512350011616945,None,,KA16,109,2025-04-01_21h25.03.629,416_EXPERIMENT_PSYCHOPY_AU2220019_AU2220225,2024.2.4,60.147843460655025,2025-04-01 21h25.21.651295 +0530,
fear_upper_blur.jpg,f,69,3,11,s,0,0.4113483999390155,None,11,3,69,2,173.31363820005208,,,,,,,,,,,,,,,,173.30862879985943,173.31363820005208,174.80939659988508,174.80939659988508,174.82536059990525,,175.22755429986864,s,0,0.4113483999390155,None,,KA16,109,2025-04-01_21h25.03.629,416_EXPERIMENT_PSYCHOPY_AU2220019_AU2220225,2024.2.4,60.147843460655025,2025-04-01 21h25.21.651295 +0530,
surprise_upper_blur.jpg,s,70,4,11,s,1,0.4964755999390036,None,11,4,70,4,175.24565139994957,,,,,,,,,,,,,,,,175.24033960001543,175.24565139994957,176.74225999996997,176.74225999996997,176.75950329983607,177.2411972999107,177.24309759982862,s,1,0.4964755999390036,None,,KA16,109,2025-04-01_21h25.03.629,416_EXPERIMENT_PSYCHOPY_AU2220019_AU2220225,2024.2.4,60.147843460655025,2025-04-01 21h25.21.651295 +0530,
fear_lower_blur.jpg,f,71,5,11,s,0,0.4445156999863684,None,11,5,71,3,177.26220060000196,,,,,,,,,,,,,,,,177.2566274998244,177.26220060000196,178.7423545999918,178.7423545999918,178.7744962000288,,179.19487040000968,s,0,0.4445156999863684,None,,KA16,109,2025-04-01_21h25.03.629,416_EXPERIMENT_PSYCHOPY_AU2220019_AU2220225,2024.2.4,60.147843460655025,2025-04-01 21h25.21.651295 +0530,
surprise_lower_blur.jpg,s,72,0,12,f,0,0.46604750002734363,None,12,0,72,5,179.21426969999447,,,,,,,,,,,,,,,,179.20826309989206,179.21426969999447,180.70803229999729,180.70803229999729,180.72615100000985,,181.17832159996033,f,0,0.46604750002734363,None,,KA16,109,2025-04-01_21h25.03.629,416_EXPERIMENT_PSYCHOPY_AU2220019_AU2220225,2024.2.4,60.147843460655025,2025-04-01 21h25.21.651295 +0530,
fear_upper_blur.jpg,f,73,1,12,f,1,0.5108969998545945,None,12,1,73,2,181.1967193998862,,,,,,,,,,,,,,,,181.1909694999922,181.1967193998862,182.69265530002303,182.69265530002303,182.70955349993892,183.19230879982933,183.21190109988675,f,1,0.5108969998545945,None,,KA16,109,2025-04-01_21h25.03.629,416_EXPERIMENT_PSYCHOPY_AU2220019_AU2220225,2024.2.4,60.147843460655025,2025-04-01 21h25.21.651295 +0530,
surprise.jpg,s,74,2,12,f,0,0.4901563001330942,None,12,2,74,1,183.23141449992545,,,,,,,,,,,,,,,,183.22564630000852,183.23141449992545,184.72929159994237,184.72929159994237,184.74248739983886,185.24424010002986,185.22591989999637,f,0,0.4901563001330942,None,,KA16,109,2025-04-01_21h25.03.629,416_EXPERIMENT_PSYCHOPY_AU2220019_AU2220225,2024.2.4,60.147843460655025,2025-04-01 21h25.21.651295 +0530,
fear_lower_blur.jpg,f,75,3,12,f,1,0.6087681001517922,None,12,3,75,3,185.24424010002986,,,,,,,,,,,,,,,,185.23838449991308,185.24424010002986,186.7264705998823,186.7264705998823,186.75987339997664,187.22600709996186,187.34474779991433,f,1,0.6087681001517922,None,,KA16,109,2025-04-01_21h25.03.629,416_EXPERIMENT_PSYCHOPY_AU2220019_AU2220225,2024.2.4,60.147843460655025,2025-04-01 21h25.21.651295 +0530,
surprise_upper_blur.jpg,s,76,4,12,s,1,0.4745384000707418,None,12,4,76,4,187.3642961999867,,,,,,,,,,,,,,,,187.358473100001,187.3642961999867,188.85958949988708,188.85958949988708,188.87637669988908,189.3628813000396,189.34445129986852,s,1,0.4745384000707418,None,,KA16,109,2025-04-01_21h25.03.629,416_EXPERIMENT_PSYCHOPY_AU2220019_AU2220225,2024.2.4,60.147843460655025,2025-04-01 21h25.21.651295 +0530,
fear.jpg,f,77,5,12,s,0,0.646253600018099,None,12,5,77,0,189.3628813000396,,,,,,,,,,,,,,,,189.35798179986887,189.3628813000396,190.85980129987,190.85980129987,190.8763445999939,191.35940049984492,191.5114162999671,s,0,0.646253600018099,None,,KA16,109,2025-04-01_21h25.03.629,416_EXPERIMENT_PSYCHOPY_AU2220019_AU2220225,2024.2.4,60.147843460655025,2025-04-01 21h25.21.651295 +0530,
surprise_upper_blur.jpg,s,78,0,13,f,0,0.38759089983068407,None,13,0,78,4,191.52870899997652,,,,,,,,,,,,,,,,191.52352399984375,191.52870899997652,193.00937299989164,193.00937299989164,193.04297970002517,,193.4120130999945,f,0,0.38759089983068407,None,,KA16,109,2025-04-01_21h25.03.629,416_EXPERIMENT_PSYCHOPY_AU2220019_AU2220225,2024.2.4,60.147843460655025,2025-04-01 21h25.21.651295 +0530,
fear_upper_blur.jpg,f,79,1,13,f,1,0.5464328001253307,None,13,1,79,2,193.43197569996119,,,,,,,,,,,,,,,,193.42583670001477,193.43197569996119,194.92632199986838,194.92632199986838,194.9427493000403,195.4261723998934,195.47811089991592,f,1,0.5464328001253307,None,,KA16,109,2025-04-01_21h25.03.629,416_EXPERIMENT_PSYCHOPY_AU2220019_AU2220225,2024.2.4,60.147843460655025,2025-04-01 21h25.21.651295 +0530,
surprise_lower_blur.jpg,s,80,2,13,f,0,0.539883199846372,None,13,2,80,5,195.4968395999167,,,,,,,,,,,,,,,,195.4909325998742,195.4968395999167,196.9927844000049,196.9927844000049,197.0096539000515,197.49139410001226,197.54387209983543,f,0,0.539883199846372,None,,KA16,109,2025-04-01_21h25.03.629,416_EXPERIMENT_PSYCHOPY_AU2220019_AU2220225,2024.2.4,60.147843460655025,2025-04-01 21h25.21.651295 +0530,
fear.jpg,f,81,3,13,f,1,0.6177316999528557,None,13,3,81,0,197.5603866998572,,,,,,,,,,,,,,,,197.5546452999115,197.5603866998572,199.0435152000282,199.0435152000282,199.05935509991832,199.54287180001847,199.67713560000993,f,1,0.6177316999528557,None,,KA16,109,2025-04-01_21h25.03.629,416_EXPERIMENT_PSYCHOPY_AU2220019_AU2220225,2024.2.4,60.147843460655025,2025-04-01 21h25.21.651295 +0530,
surprise.jpg,s,82,4,13,f,0,0.5694269998930395,None,13,4,82,1,199.69573459983803,,,,,,,,,,,,,,,,199.69096260005608,199.69573459983803,201.1907623000443,201.1907623000443,201.20756999985315,201.6934032998979,201.76353230001405,f,0,0.5694269998930395,None,,KA16,109,2025-04-01_21h25.03.629,416_EXPERIMENT_PSYCHOPY_AU2220019_AU2220225,2024.2.4,60.147843460655025,2025-04-01 21h25.21.651295 +0530,
fear_lower_blur.jpg,f,83,5,13,s,0,0.3843412999995053,None,13,5,83,3,201.78202709998004,,,,,,,,,,,,,,,,201.77629680000246,201.78202709998004,203.27506829984486,203.27506829984486,203.2900070999749,,203.6762714998331,s,0,0.3843412999995053,None,,KA16,109,2025-04-01_21h25.03.629,416_EXPERIMENT_PSYCHOPY_AU2220019_AU2220225,2024.2.4,60.147843460655025,2025-04-01 21h25.21.651295 +0530,
fear_lower_blur.jpg,f,84,0,14,f,1,0.6640510999131948,None,14,0,84,3,203.69368049991317,,,,,,,,,,,,,,,,203.6877629000228,203.69368049991317,205.1929154000245,205.1929154000245,205.1929154000245,205.69282859982923,205.86250599985942,f,1,0.6640510999131948,None,,KA16,109,2025-04-01_21h25.03.629,416_EXPERIMENT_PSYCHOPY_AU2220019_AU2220225,2024.2.4,60.147843460655025,2025-04-01 21h25.21.651295 +0530,
fear.jpg,f,85,1,14,s,0,0.40594510012306273,None,14,1,85,0,205.88196629984304,,,,,,,,,,,,,,,,205.87648149998859,205.88196629984304,207.37636819994077,207.37636819994077,207.3906405000016,,207.7936915999744,s,0,0.40594510012306273,None,,KA16,109,2025-04-01_21h25.03.629,416_EXPERIMENT_PSYCHOPY_AU2220019_AU2220225,2024.2.4,60.147843460655025,2025-04-01 21h25.21.651295 +0530,
surprise.jpg,s,86,2,14,s,1,0.6174467999953777,None,14,2,86,1,207.81025850004517,,,,,,,,,,,,,,,,207.80509329983033,207.81025850004517,209.30960269994102,209.30960269994102,209.30960269994102,209.82568819983862,209.94459099997766,s,1,0.6174467999953777,None,,KA16,109,2025-04-01_21h25.03.629,416_EXPERIMENT_PSYCHOPY_AU2220019_AU2220225,2024.2.4,60.147843460655025,2025-04-01 21h25.21.651295 +0530,
surprise_lower_blur.jpg,s,87,3,14,f,0,0.49019879987463355,None,14,3,87,5,209.96426719985902,,,,,,,,,,,,,,,,209.95911860000342,209.96426719985902,211.45686889998615,211.45686889998615,211.47466209996492,211.9582346000243,211.96048139990307,f,0,0.49019879987463355,None,,KA16,109,2025-04-01_21h25.03.629,416_EXPERIMENT_PSYCHOPY_AU2220019_AU2220225,2024.2.4,60.147843460655025,2025-04-01 21h25.21.651295 +0530,
surprise_upper_blur.jpg,s,88,4,14,f,0,0.49983609979972243,None,14,4,88,4,211.9761566000525,,,,,,,,,,,,,,,,211.9698469999712,211.9761566000525,213.47609349992126,213.47609349992126,213.47609349992126,213.9919032000471,213.9943611000199,f,0,0.49983609979972243,None,,KA16,109,2025-04-01_21h25.03.629,416_EXPERIMENT_PSYCHOPY_AU2220019_AU2220225,2024.2.4,60.147843460655025,2025-04-01 21h25.21.651295 +0530,
fear_upper_blur.jpg,f,89,5,14,f,1,0.42923120013438165,None,14,5,89,2,214.01050289999694,,,,,,,,,,,,,,,,214.00468120002188,214.01050289999694,215.50864210003056,215.50864210003056,215.52586909988895,,215.94461390003562,f,1,0.42923120013438165,None,,KA16,109,2025-04-01_21h25.03.629,416_EXPERIMENT_PSYCHOPY_AU2220019_AU2220225,2024.2.4,60.147843460655025,2025-04-01 21h25.21.651295 +0530,
surprise_lower_blur.jpg,s,90,0,15,s,1,0.3775424000341445,None,15,0,90,5,215.9630543999374,,,,,,,,,,,,,,,,215.9574372000061,215.9630543999374,217.45879970001988,217.45879970001988,217.47579199983738,,217.8447234998457,s,1,0.3775424000341445,None,,KA16,109,2025-04-01_21h25.03.629,416_EXPERIMENT_PSYCHOPY_AU2220019_AU2220225,2024.2.4,60.147843460655025,2025-04-01 21h25.21.651295 +0530,
fear.jpg,f,91,1,15,f,1,0.47833139984868467,None,15,1,91,0,217.86370379989967,,,,,,,,,,,,,,,,217.8586110000033,217.86370379989967,219.35859670001082,219.35859670001082,219.37520739994943,219.86495739989914,219.84461989998817,f,1,0.47833139984868467,None,,KA16,109,2025-04-01_21h25.03.629,416_EXPERIMENT_PSYCHOPY_AU2220019_AU2220225,2024.2.4,60.147843460655025,2025-04-01 21h25.21.651295 +0530,
surprise.jpg,s,92,2,15,s,1,0.5620468000415713,None,15,2,92,1,219.86495739989914,,,,,,,,,,,,,,,,219.8590613999404,219.86495739989914,221.35693400003947,221.35693400003947,221.37387799983844,221.8587233000435,221.92770350002684,s,1,0.5620468000415713,None,,KA16,109,2025-04-01_21h25.03.629,416_EXPERIMENT_PSYCHOPY_AU2220019_AU2220225,2024.2.4,60.147843460655025,2025-04-01 21h25.21.651295 +0530,
fear_lower_blur.jpg,f,93,3,15,f,1,0.6288723999168724,None,15,3,93,3,221.94642429985106,,,,,,,,,,,,,,,,221.94074220000766,221.94642429985106,223.44221340003423,223.44221340003423,223.4593097998295,223.94223809987307,224.07738070003688,f,1,0.6288723999168724,None,,KA16,109,2025-04-01_21h25.03.629,416_EXPERIMENT_PSYCHOPY_AU2220019_AU2220225,2024.2.4,60.147843460655025,2025-04-01 21h25.21.651295 +0530,
surprise_upper_blur.jpg,s,94,4,15,s,1,0.4656426999717951,None,15,4,94,4,224.0958660999313,,,,,,,,,,,,,,,,224.09019929985516,224.0958660999313,225.59180369996466,225.59180369996466,225.60946800000966,,226.06109029985964,s,1,0.4656426999717951,None,,KA16,109,2025-04-01_21h25.03.629,416_EXPERIMENT_PSYCHOPY_AU2220019_AU2220225,2024.2.4,60.147843460655025,2025-04-01 21h25.21.651295 +0530,
fear_upper_blur.jpg,f,95,5,15,f,1,0.6784394001588225,None,15,5,95,2,226.07995090004988,,,,,,,,,,,,,,,,226.0739304998424,226.07995090004988,227.57572179986164,227.57572179986164,227.59271809994243,228.07590990001336,228.25935689988546,f,1,0.6784394001588225,None,,KA16,109,2025-04-01_21h25.03.629,416_EXPERIMENT_PSYCHOPY_AU2220019_AU2220225,2024.2.4,60.147843460655025,2025-04-01 21h25.21.651295 +0530,
fear_upper_blur.jpg,f,96,0,16,f,1,0.5272633999120444,None,16,0,96,2,228.27580599999055,,,,,,,,,,,,,,,,228.26964029995725,228.27580599999055,229.76008809986524,229.76008809986524,229.77520569995977,230.27598789986223,230.2951970999129,f,1,0.5272633999120444,None,,KA16,109,2025-04-01_21h25.03.629,416_EXPERIMENT_PSYCHOPY_AU2220019_AU2220225,2024.2.4,60.147843460655025,2025-04-01 21h25.21.651295 +0530,
surprise.jpg,s,97,1,16,s,1,0.5130143000278622,None,16,1,97,1,230.31519140000455,,,,,,,,,,,,,,,,230.30919900001027,230.31519140000455,231.80927410000004,231.80927410000004,231.82534119999036,232.3087279999163,232.3277298999019,s,1,0.5130143000278622,None,,KA16,109,2025-04-01_21h25.03.629,416_EXPERIMENT_PSYCHOPY_AU2220019_AU2220225,2024.2.4,60.147843460655025,2025-04-01 21h25.21.651295 +0530,
surprise_upper_blur.jpg,s,98,2,16,f,0,0.45141720003448427,None,16,2,98,4,232.34631309984252,,,,,,,,,,,,,,,,232.3406894998625,232.34631309984252,233.84235739987344,233.84235739987344,233.85933869984,,234.31080339988694,f,0,0.45141720003448427,None,,KA16,109,2025-04-01_21h25.03.629,416_EXPERIMENT_PSYCHOPY_AU2220019_AU2220225,2024.2.4,60.147843460655025,2025-04-01 21h25.21.651295 +0530,
surprise_lower_blur.jpg,s,99,3,16,f,0,0.4652947001159191,None,16,3,99,5,234.32972509996034,,,,,,,,,,,,,,,,234.32433380000293,234.32972509996034,235.8258539000526,235.8258539000526,235.84223890001886,,236.29517299984582,f,0,0.4652947001159191,None,,KA16,109,2025-04-01_21h25.03.629,416_EXPERIMENT_PSYCHOPY_AU2220019_AU2220225,2024.2.4,60.147843460655025,2025-04-01 21h25.21.651295 +0530,
fear.jpg,f,100,4,16,s,0,0.4192321998998523,None,16,4,100,0,236.31508139986545,,,,,,,,,,,,,,,,236.3094446999021,236.31508139986545,237.80936910002492,237.80936910002492,237.8252442998346,,238.24399069999345,s,0,0.4192321998998523,None,,KA16,109,2025-04-01_21h25.03.629,416_EXPERIMENT_PSYCHOPY_AU2220019_AU2220225,2024.2.4,60.147843460655025,2025-04-01 21h25.21.651295 +0530,
fear_lower_blur.jpg,f,101,5,16,f,1,0.5459487000480294,None,16,5,101,3,238.2622107998468,,,,,,,,,,,,,,,,238.25752849993296,238.2622107998468,239.75848119985312,239.75848119985312,239.77390699996613,240.25874980003573,240.31069489987567,f,1,0.5459487000480294,None,,KA16,109,2025-04-01_21h25.03.629,416_EXPERIMENT_PSYCHOPY_AU2220019_AU2220225,2024.2.4,60.147843460655025,2025-04-01 21h25.21.651295 +0530,
fear_lower_blur.jpg,f,102,0,17,f,1,0.5082247001118958,None,17,0,102,3,240.3289024999831,,,,,,,,,,,,,,,,240.32366329990327,240.3289024999831,241.8253631000407,241.8253631000407,241.84214539988898,242.3252315998543,242.34381069988012,f,1,0.5082247001118958,None,,KA16,109,2025-04-01_21h25.03.629,416_EXPERIMENT_PSYCHOPY_AU2220019_AU2220225,2024.2.4,60.147843460655025,2025-04-01 21h25.21.651295 +0530,
fear_upper_blur.jpg,f,103,1,17,s,0,0.5212886000517756,None,17,1,103,2,242.36312119988725,,,,,,,,,,,,,,,,242.35730789997615,242.36312119988725,243.8583759998437,243.8583759998437,243.87565469997935,244.3584274998866,244.39438439998776,s,0,0.5212886000517756,None,,KA16,109,2025-04-01_21h25.03.629,416_EXPERIMENT_PSYCHOPY_AU2220019_AU2220225,2024.2.4,60.147843460655025,2025-04-01 21h25.21.651295 +0530,
surprise.jpg,s,104,2,17,s,1,0.6783205000683665,None,17,2,104,1,244.41393929999322,,,,,,,,,,,,,,,,244.4087404999882,244.41393929999322,245.90907139983028,245.90907139983028,245.92582899983972,246.40917590004392,246.59475139994174,s,1,0.6783205000683665,None,,KA16,109,2025-04-01_21h25.03.629,416_EXPERIMENT_PSYCHOPY_AU2220019_AU2220225,2024.2.4,60.147843460655025,2025-04-01 21h25.21.651295 +0530,
surprise_lower_blur.jpg,s,105,3,17,f,0,0.5303114999551326,None,17,3,105,5,246.61361899995245,,,,,,,,,,,,,,,,246.6079032998532,246.61361899995245,248.10973829985596,248.10973829985596,248.12536079995334,248.60918369982392,248.64442529994994,f,0,0.5303114999551326,None,,KA16,109,2025-04-01_21h25.03.629,416_EXPERIMENT_PSYCHOPY_AU2220019_AU2220225,2024.2.4,60.147843460655025,2025-04-01 21h25.21.651295 +0530,
fear.jpg,f,106,4,17,s,0,0.5311416001059115,None,17,4,106,0,248.66480879997835,,,,,,,,,,,,,,,,248.6581770000048,248.66480879997835,250.1592349000275,250.1592349000275,250.17558709997684,250.65884509985335,250.69484369992279,s,0,0.5311416001059115,None,,KA16,109,2025-04-01_21h25.03.629,416_EXPERIMENT_PSYCHOPY_AU2220019_AU2220225,2024.2.4,60.147843460655025,2025-04-01 21h25.21.651295 +0530,
surprise_upper_blur.jpg,s,107,5,17,f,0,0.4813395000528544,None,17,5,107,4,250.71451759990305,,,,,,,,,,,,,,,,250.70839999988675,250.71451759990305,252.20842120004818,252.20842120004818,252.22568649984896,252.7126817998942,252.6944037999492,f,0,0.4813395000528544,None,,KA16,109,2025-04-01_21h25.03.629,416_EXPERIMENT_PSYCHOPY_AU2220019_AU2220225,2024.2.4,60.147843460655025,2025-04-01 21h25.21.651295 +0530,
surprise_upper_blur.jpg,s,108,0,18,f,0,0.4949926999397576,None,18,0,108,4,252.7126817998942,,,,,,,,,,,,,,,,252.7072592000477,252.7126817998942,254.2092577998992,254.2092577998992,254.22577230003662,254.70872600004077,254.71067469986156,f,0,0.4949926999397576,None,,KA16,109,2025-04-01_21h25.03.629,416_EXPERIMENT_PSYCHOPY_AU2220019_AU2220225,2024.2.4,60.147843460655025,2025-04-01 21h25.21.651295 +0530,
surprise_lower_blur.jpg,s,109,1,18,s,1,0.5839411001652479,None,18,1,109,5,254.7288728998974,,,,,,,,,,,,,,,,254.72287749988027,254.7288728998974,256.2257902000565,256.2257902000565,256.24185730004683,256.72568059992045,256.827538699843,s,1,0.5839411001652479,None,,KA16,109,2025-04-01_21h25.03.629,416_EXPERIMENT_PSYCHOPY_AU2220019_AU2220225,2024.2.4,60.147843460655025,2025-04-01 21h25.21.651295 +0530,
fear.jpg,f,110,2,18,f,1,0.5062698998954147,None,18,2,110,0,256.8443251999561,,,,,,,,,,,,,,,,256.8394732000306,256.8443251999561,258.3422203999944,258.3422203999944,258.35874639987014,258.8584322000388,258.861248599831,f,1,0.5062698998954147,None,,KA16,109,2025-04-01_21h25.03.629,416_EXPERIMENT_PSYCHOPY_AU2220019_AU2220225,2024.2.4,60.147843460655025,2025-04-01 21h25.21.651295 +0530,
fear_upper_blur.jpg,f,111,3,18,s,0,0.4900962000247091,None,18,3,111,2,258.8777207999956,,,,,,,,,,,,,,,,258.8725149000529,258.8777207999956,260.3758570998907,260.3758570998907,260.3925320999697,260.87506189988926,260.8770738998428,s,0,0.4900962000247091,None,,KA16,109,2025-04-01_21h25.03.629,416_EXPERIMENT_PSYCHOPY_AU2220019_AU2220225,2024.2.4,60.147843460655025,2025-04-01 21h25.21.651295 +0530,
surprise.jpg,s,112,4,18,None,0,,,18,4,112,1,260.89626429998316,,,,,,,,,,,,,,,,260.8909449998755,260.89626429998316,262.3902067998424,262.3902067998424,262.40824669995345,262.89207859989256,263.1269062999636,None,0,,,263.14238779991865,KA16,109,2025-04-01_21h25.03.629,416_EXPERIMENT_PSYCHOPY_AU2220019_AU2220225,2024.2.4,60.147843460655025,2025-04-01 21h25.21.651295 +0530,
fear_lower_blur.jpg,f,113,5,18,f,1,0.5266754999756813,None,18,5,113,3,263.14238779991865,,,,,,,,,,,,,,,,263.1365437998902,263.14238779991865,264.6421472998336,264.6421472998336,264.6421472998336,265.1423604998272,265.1779048999306,f,1,0.5266754999756813,None,,KA16,109,2025-04-01_21h25.03.629,416_EXPERIMENT_PSYCHOPY_AU2220019_AU2220225,2024.2.4,60.147843460655025,2025-04-01 21h25.21.651295 +0530,
fear.jpg,f,114,0,19,f,1,0.5984450001269579,None,19,0,114,0,265.1975871999748,,,,,,,,,,,,,,,,265.19178280001506,265.1975871999748,266.69195719994605,266.69195719994605,266.7085965999868,267.19229869986884,267.2955093998462,f,1,0.5984450001269579,None,,KA16,109,2025-04-01_21h25.03.629,416_EXPERIMENT_PSYCHOPY_AU2220019_AU2220225,2024.2.4,60.147843460655025,2025-04-01 21h25.21.651295 +0530,
fear_upper_blur.jpg,f,115,1,19,f,1,0.5297666001133621,None,19,1,115,2,267.3135756000411,,,,,,,,,,,,,,,,267.30846909992397,267.3135756000411,268.80840059998445,268.80840059998445,268.8265601999592,269.30639729998074,269.34396820003167,f,1,0.5297666001133621,None,,KA16,109,2025-04-01_21h25.03.629,416_EXPERIMENT_PSYCHOPY_AU2220019_AU2220225,2024.2.4,60.147843460655025,2025-04-01 21h25.21.651295 +0530,
surprise_lower_blur.jpg,s,116,2,19,f,0,0.5491806999780238,None,19,2,116,5,269.35956789995544,,,,,,,,,,,,,,,,269.35426319995895,269.35956789995544,270.8588061998598,270.8588061998598,270.875693900045,271.3591379998252,271.41143239988014,f,0,0.5491806999780238,None,,KA16,109,2025-04-01_21h25.03.629,416_EXPERIMENT_PSYCHOPY_AU2220019_AU2220225,2024.2.4,60.147843460655025,2025-04-01 21h25.21.651295 +0530,
fear_lower_blur.jpg,f,117,3,19,f,1,0.4490547999739647,None,19,3,117,3,271.43047799984924,,,,,,,,,,,,,,,,271.4248559998814,271.43047799984924,272.92553270002827,272.92553270002827,272.9421106998343,,273.38071269984357,f,1,0.4490547999739647,None,,KA16,109,2025-04-01_21h25.03.629,416_EXPERIMENT_PSYCHOPY_AU2220019_AU2220225,2024.2.4,60.147843460655025,2025-04-01 21h25.21.651295 +0530,
surprise_upper_blur.jpg,s,118,4,19,f,0,0.4698908000718802,None,19,4,118,4,273.3997416999191,,,,,,,,,,,,,,,,273.39382839994505,273.3997416999191,274.89184239995666,274.89184239995666,274.9087559999898,275.39754449995235,275.3779139998369,f,0,0.4698908000718802,None,,KA16,109,2025-04-01_21h25.03.629,416_EXPERIMENT_PSYCHOPY_AU2220019_AU2220225,2024.2.4,60.147843460655025,2025-04-01 21h25.21.651295 +0530,
surprise.jpg,s,119,5,19,s,1,0.4666259998921305,None,19,5,119,1,275.39754449995235,,,,,,,,,,,,,,,,275.39150479994714,275.39754449995235,276.8921964999754,276.8921964999754,276.9089047999587,,277.36248079990037,s,1,0.4666259998921305,None,,KA16,109,2025-04-01_21h25.03.629,416_EXPERIMENT_PSYCHOPY_AU2220019_AU2220225,2024.2.4,60.147843460655025,2025-04-01 21h25.21.651295 +0530,
