stimulus_image,correct_response,loop.thisRepN,loop.thisTrialN,loop.thisN,loop.thisIndex,thisRow.t,notes,guide.started,instructions.started,ins_resp.started,guide.stopped,ins_resp.keys,ins_resp.rt,ins_resp.duration,guide_2.started,ins_resp_2.started,instructions_2.started,guide_2.stopped,ins_resp_2.keys,ins_resp_2.rt,ins_resp_2.duration,trial.started,fixation.started,image.started,key_resp.started,fixation.stopped,trial.stopped,key_resp.keys,key_resp.corr,key_resp.rt,key_resp.duration,image.stopped,key_resp.stopped,participant,session,date,expName,psychopyVersion,frameRate,expStart,
,,,,,,,,0.004122500075027347,0.026616400107741356,0.026616400107741356,14.21099310007412,space,14.112134099937975,None,,,,,,,,,,,,,,,,,,,,N19,001,2025-03-30_09h22.35.589,416_EXPERIMENT_PSYCHOPY_AU2220019_AU2220225,2024.1.5,None,2025-03-30 09h23.14.177658 +0530,
,,,,,,,,,,,,,,,14.211101600085385,14.218599300016649,14.218599300016649,18.944842800032347,space,4.716523200040683,None,,,,,,,,,,,,,N19,001,2025-03-30_09h22.35.589,416_EXPERIMENT_PSYCHOPY_AU2220019_AU2220225,2024.1.5,None,2025-03-30 09h23.14.177658 +0530,
fear.jpg,f,0,0,0,0,18.98362040007487,,,,,,,,,,,,,,,,18.96633990004193,18.98362040007487,20.5633758000331,20.5633758000331,20.57273910008371,20.9435881000245,f,1,0.3679113000398502,None,,,N19,001,2025-03-30_09h22.35.589,416_EXPERIMENT_PSYCHOPY_AU2220019_AU2220225,2024.1.5,None,2025-03-30 09h23.14.177658 +0530,
surprise.jpg,s,0,1,1,1,21.020511500071734,,,,,,,,,,,,,,,,20.99569860007614,21.020511500071734,22.506482500000857,22.506482500000857,22.52364800008945,23.05903370003216,s,1,0.5480271000415087,None,,,N19,001,2025-03-30_09h22.35.589,416_EXPERIMENT_PSYCHOPY_AU2220019_AU2220225,2024.1.5,None,2025-03-30 09h23.14.177658 +0530,
fear_lower_blur.jpg,f,0,2,2,3,23.10242350003682,,,,,,,,,,,,,,,,23.060836200020276,23.10242350003682,24.571658300003037,24.571658300003037,24.604258800041862,25.156120300060138,f,1,0.5672784999478608,None,,,N19,001,2025-03-30_09h22.35.589,416_EXPERIMENT_PSYCHOPY_AU2220019_AU2220225,2024.1.5,None,2025-03-30 09h23.14.177658 +0530,
surprise_lower_blur.jpg,s,0,3,3,5,25.22895130002871,,,,,,,,,,,,,,,,25.157657300005667,25.22895130002871,26.668361700023524,26.668361700023524,26.73619610001333,27.303829200100154,s,1,0.6261118999682367,None,,,N19,001,2025-03-30_09h22.35.589,416_EXPERIMENT_PSYCHOPY_AU2220019_AU2220225,2024.1.5,None,2025-03-30 09h23.14.177658 +0530,
surprise_upper_blur.jpg,s,0,4,4,4,27.351707700057887,,,,,,,,,,,,,,,,27.305208300007507,27.351707700057887,28.817010200000368,28.817010200000368,28.867439400055446,29.368846100056544,s,1,0.539493800024502,None,,,N19,001,2025-03-30_09h22.35.589,416_EXPERIMENT_PSYCHOPY_AU2220019_AU2220225,2024.1.5,None,2025-03-30 09h23.14.177658 +0530,
fear_upper_blur.jpg,f,0,5,5,2,29.42747810005676,,,,,,,,,,,,,,,,29.37024120008573,29.42747810005676,30.881985200103372,30.881985200103372,30.9328093000222,31.549963900004514,f,1,0.6550317999208346,None,,,N19,001,2025-03-30_09h22.35.589,416_EXPERIMENT_PSYCHOPY_AU2220019_AU2220225,2024.1.5,None,2025-03-30 09h23.14.177658 +0530,
fear_upper_blur.jpg,f,1,0,6,2,31.574201700044796,,,,,,,,,,,,,,,,31.55117600003723,31.574201700044796,33.064219400053844,33.064219400053844,33.08025540004019,33.514882900053635,f,1,0.44387870002537966,None,,,N19,001,2025-03-30_09h22.35.589,416_EXPERIMENT_PSYCHOPY_AU2220019_AU2220225,2024.1.5,None,2025-03-30 09h23.14.177658 +0530,
fear_lower_blur.jpg,f,1,1,7,3,33.53715590003412,,,,,,,,,,,,,,,,33.51702030003071,33.53715590003412,35.02786550007295,35.02786550007295,35.044433400034904,35.64440170000307,f,1,0.6009113000473008,None,,,N19,001,2025-03-30_09h22.35.589,416_EXPERIMENT_PSYCHOPY_AU2220019_AU2220225,2024.1.5,None,2025-03-30 09h23.14.177658 +0530,
surprise_upper_blur.jpg,s,1,2,8,4,35.65906170010567,,,,,,,,,,,,,,,,35.64566650008783,35.65906170010567,37.15924700000323,37.15924700000323,37.15924700000323,37.66097220010124,s,1,0.49488160002510995,None,,,N19,001,2025-03-30_09h22.35.589,416_EXPERIMENT_PSYCHOPY_AU2220019_AU2220225,2024.1.5,None,2025-03-30 09h23.14.177658 +0530,
fear.jpg,f,1,3,9,0,37.68324260006193,,,,,,,,,,,,,,,,37.66295230004471,37.68324260006193,39.173934400081635,39.173934400081635,39.1903882001061,39.54275460005738,f,1,0.35788609995506704,None,,,N19,001,2025-03-30_09h22.35.589,416_EXPERIMENT_PSYCHOPY_AU2220019_AU2220225,2024.1.5,None,2025-03-30 09h23.14.177658 +0530,
surprise_lower_blur.jpg,s,1,4,10,5,39.55994670011569,,,,,,,,,,,,,,,,39.54392250010278,39.55994670011569,41.05492460005917,41.05492460005917,41.072114600101486,41.539729900076054,s,1,0.4680984999286011,None,,,N19,001,2025-03-30_09h22.35.589,416_EXPERIMENT_PSYCHOPY_AU2220019_AU2220225,2024.1.5,None,2025-03-30 09h23.14.177658 +0530,
surprise.jpg,s,1,5,11,1,41.55662580009084,,,,,,,,,,,,,,,,41.54083180008456,41.55662580009084,43.05313210003078,43.05313210003078,43.06990170001518,43.604621000005864,s,1,0.5403907999861985,None,,,N19,001,2025-03-30_09h22.35.589,416_EXPERIMENT_PSYCHOPY_AU2220019_AU2220225,2024.1.5,None,2025-03-30 09h23.14.177658 +0530,
fear.jpg,f,2,0,12,0,43.62414090009406,,,,,,,,,,,,,,,,43.60609480005223,43.62414090009406,45.11732150008902,45.11732150008902,45.13444190006703,45.61945930006914,f,1,0.48671259998809546,None,,,N19,001,2025-03-30_09h22.35.589,416_EXPERIMENT_PSYCHOPY_AU2220019_AU2220225,2024.1.5,None,2025-03-30 09h23.14.177658 +0530,
fear_lower_blur.jpg,f,2,1,13,3,45.63628270011395,,,,,,,,,,,,,,,,45.62115080002695,45.63628270011395,47.13210300006904,47.13210300006904,47.148910400108434,47.700770200113766,f,1,0.5667614000849426,None,,,N19,001,2025-03-30_09h22.35.589,416_EXPERIMENT_PSYCHOPY_AU2220019_AU2220225,2024.1.5,None,2025-03-30 09h23.14.177658 +0530,
fear_upper_blur.jpg,f,2,2,14,2,47.71925600001123,,,,,,,,,,,,,,,,47.70213660004083,47.71925600001123,49.21393250010442,49.21393250010442,49.23001400008798,49.682719900039956,f,1,0.46508750005159527,None,,,N19,001,2025-03-30_09h22.35.589,416_EXPERIMENT_PSYCHOPY_AU2220019_AU2220225,2024.1.5,None,2025-03-30 09h23.14.177658 +0530,
surprise_lower_blur.jpg,s,2,3,15,5,49.70088450005278,,,,,,,,,,,,,,,,49.684445600025356,49.70088450005278,51.19505970005412,51.19505970005412,51.211549300001934,51.59704160003457,f,0,0.3953893999569118,None,,,N19,001,2025-03-30_09h22.35.589,416_EXPERIMENT_PSYCHOPY_AU2220019_AU2220225,2024.1.5,None,2025-03-30 09h23.14.177658 +0530,
surprise.jpg,s,2,4,16,1,51.616934600053355,,,,,,,,,,,,,,,,51.59900600009132,51.616934600053355,53.10979190003127,53.10979190003127,53.12641170003917,53.728101700078696,s,1,0.6151010999456048,None,,,N19,001,2025-03-30_09h22.35.589,416_EXPERIMENT_PSYCHOPY_AU2220019_AU2220225,2024.1.5,None,2025-03-30 09h23.14.177658 +0530,
surprise_upper_blur.jpg,s,2,5,17,4,53.74628470011521,,,,,,,,,,,,,,,,53.72934780002106,53.74628470011521,55.24054180004168,55.24054180004168,55.257917100097984,55.974977000034414,None,0,,,55.99301960004959,55.99301960004959,N19,001,2025-03-30_09h22.35.589,416_EXPERIMENT_PSYCHOPY_AU2220019_AU2220225,2024.1.5,None,2025-03-30 09h23.14.177658 +0530,
fear_upper_blur.jpg,f,3,0,18,2,55.99301960004959,,,,,,,,,,,,,,,,55.97604440001305,55.99301960004959,57.489111000089906,57.489111000089906,57.506020500091836,58.17467260011472,f,1,0.6782372000161558,None,,,N19,001,2025-03-30_09h22.35.589,416_EXPERIMENT_PSYCHOPY_AU2220019_AU2220225,2024.1.5,None,2025-03-30 09h23.14.177658 +0530,
surprise.jpg,s,3,1,19,1,58.194692000048235,,,,,,,,,,,,,,,,58.1762863000622,58.194692000048235,59.6867637000978,59.6867637000978,59.70385830011219,60.17009830009192,s,1,0.47674029995687306,None,,,N19,001,2025-03-30_09h22.35.589,416_EXPERIMENT_PSYCHOPY_AU2220019_AU2220225,2024.1.5,None,2025-03-30 09h23.14.177658 +0530,
fear_lower_blur.jpg,f,3,2,20,3,60.18473930004984,,,,,,,,,,,,,,,,60.17113030003384,60.18473930004984,61.68525870004669,61.68525870004669,61.68525870004669,62.37027020007372,f,1,0.678544000023976,None,,,N19,001,2025-03-30_09h22.35.589,416_EXPERIMENT_PSYCHOPY_AU2220019_AU2220225,2024.1.5,None,2025-03-30 09h23.14.177658 +0530,
surprise_upper_blur.jpg,s,3,3,21,4,62.389509700005874,,,,,,,,,,,,,,,,62.371907100081444,62.389509700005874,63.88313030009158,63.88313030009158,63.899028600077145,64.50159820006229,s,1,0.6030503999209031,None,,,N19,001,2025-03-30_09h22.35.589,416_EXPERIMENT_PSYCHOPY_AU2220019_AU2220225,2024.1.5,None,2025-03-30 09h23.14.177658 +0530,
fear.jpg,f,3,4,22,0,64.52359340002295,,,,,,,,,,,,,,,,64.50338860007469,64.52359340002295,66.01398690009955,66.01398690009955,66.03084750007838,66.565220800112,f,1,0.5403667000355199,None,,,N19,001,2025-03-30_09h22.35.589,416_EXPERIMENT_PSYCHOPY_AU2220019_AU2220225,2024.1.5,None,2025-03-30 09h23.14.177658 +0530,
surprise_lower_blur.jpg,s,3,5,23,5,66.58204310003202,,,,,,,,,,,,,,,,66.56654120003805,66.58204310003202,68.07822810008656,68.07822810008656,68.09560410003178,68.59689860010985,s,1,0.5100642000325024,None,,,N19,001,2025-03-30_09h22.35.589,416_EXPERIMENT_PSYCHOPY_AU2220019_AU2220225,2024.1.5,None,2025-03-30 09h23.14.177658 +0530,
surprise_upper_blur.jpg,s,4,0,24,4,68.61529510002583,,,,,,,,,,,,,,,,68.59835480002221,68.61529510002583,70.10955240007024,70.10955240007024,70.12682370003313,70.49548070004676,f,0,0.3815082999644801,None,,,N19,001,2025-03-30_09h22.35.589,416_EXPERIMENT_PSYCHOPY_AU2220019_AU2220225,2024.1.5,None,2025-03-30 09h23.14.177658 +0530,
surprise_lower_blur.jpg,s,4,1,25,5,70.51260090002324,,,,,,,,,,,,,,,,70.49689790001139,70.51260090002324,72.00842740002554,72.00842740002554,72.0245687001152,72.60894160007592,s,1,0.584015000029467,None,,,N19,001,2025-03-30_09h22.35.589,416_EXPERIMENT_PSYCHOPY_AU2220019_AU2220225,2024.1.5,None,2025-03-30 09h23.14.177658 +0530,
surprise.jpg,s,4,2,26,1,72.62726230011322,,,,,,,,,,,,,,,,72.61056910001207,72.62726230011322,74.12281240010634,74.12281240010634,74.13951860007364,74.70692170003895,s,1,0.572003599954769,None,,,N19,001,2025-03-30_09h22.35.589,416_EXPERIMENT_PSYCHOPY_AU2220019_AU2220225,2024.1.5,None,2025-03-30 09h23.14.177658 +0530,
fear_lower_blur.jpg,f,4,3,27,3,74.72847660002299,,,,,,,,,,,,,,,,74.70854000002146,74.72847660002299,76.22062950010877,76.22062950010877,76.23687580006663,76.88856950006448,f,1,0.6661183000542223,None,,,N19,001,2025-03-30_09h22.35.589,416_EXPERIMENT_PSYCHOPY_AU2220019_AU2220225,2024.1.5,None,2025-03-30 09h23.14.177658 +0530,
fear.jpg,f,4,4,28,0,76.90547530003823,,,,,,,,,,,,,,,,76.88988860009704,76.90547530003823,78.40213960001711,78.40213960001711,78.41730340011418,78.87046860007104,f,1,0.45437180006410927,None,,,N19,001,2025-03-30_09h22.35.589,416_EXPERIMENT_PSYCHOPY_AU2220019_AU2220225,2024.1.5,None,2025-03-30 09h23.14.177658 +0530,
fear_upper_blur.jpg,f,4,5,29,2,78.89187020005193,,,,,,,,,,,,,,,,78.87168460001703,78.89187020005193,80.38257720007095,80.38257720007095,80.40004610002507,80.88445730006788,f,1,0.484947600052692,None,,,N19,001,2025-03-30_09h22.35.589,416_EXPERIMENT_PSYCHOPY_AU2220019_AU2220225,2024.1.5,None,2025-03-30 09h23.14.177658 +0530,
fear_lower_blur.jpg,f,5,0,30,3,80.90231800009497,,,,,,,,,,,,,,,,80.88611100008711,80.90231800009497,82.3972562000854,82.3972562000854,82.41384060005657,82.68319960008375,f,1,0.27343960001599044,None,,,N19,001,2025-03-30_09h22.35.589,416_EXPERIMENT_PSYCHOPY_AU2220019_AU2220225,2024.1.5,None,2025-03-30 09h23.14.177658 +0530,
surprise_upper_blur.jpg,s,5,1,31,4,82.7010764000006,,,,,,,,,,,,,,,,82.68463350005914,82.7010764000006,84.19543770002201,84.19543770002201,84.21292600000743,84.59816350007895,f,0,0.3884721000213176,None,,,N19,001,2025-03-30_09h22.35.589,416_EXPERIMENT_PSYCHOPY_AU2220019_AU2220225,2024.1.5,None,2025-03-30 09h23.14.177658 +0530,
surprise.jpg,s,5,2,32,1,84.61619960004464,,,,,,,,,,,,,,,,84.5994614000665,84.61619960004464,86.11068880010862,86.11068880010862,86.1281200000085,86.71391810011119,s,1,0.5965924999909475,None,,,N19,001,2025-03-30_09h22.35.589,416_EXPERIMENT_PSYCHOPY_AU2220019_AU2220225,2024.1.5,None,2025-03-30 09h23.14.177658 +0530,
surprise_lower_blur.jpg,s,5,3,33,5,86.73391160008032,,,,,,,,,,,,,,,,86.71544240007643,86.73391160008032,88.22497970005497,88.22497970005497,88.24259570008144,88.74389979999978,s,1,0.5103744000662118,None,,,N19,001,2025-03-30_09h22.35.589,416_EXPERIMENT_PSYCHOPY_AU2220019_AU2220225,2024.1.5,None,2025-03-30 09h23.14.177658 +0530,
fear.jpg,f,5,4,34,0,88.76241430011578,,,,,,,,,,,,,,,,88.7455098000355,88.76241430011578,90.2571644000709,90.2571644000709,90.276470300043,90.69230400002562,s,0,0.4177200000267476,None,,,N19,001,2025-03-30_09h22.35.589,416_EXPERIMENT_PSYCHOPY_AU2220019_AU2220225,2024.1.5,None,2025-03-30 09h23.14.177658 +0530,
fear_upper_blur.jpg,f,5,5,35,2,90.7098581000464,,,,,,,,,,,,,,,,90.69364240008872,90.7098581000464,92.20507230004296,92.20507230004296,92.22157990001142,92.57427420001477,f,1,0.36699180002324283,None,,,N19,001,2025-03-30_09h22.35.589,416_EXPERIMENT_PSYCHOPY_AU2220019_AU2220225,2024.1.5,None,2025-03-30 09h23.14.177658 +0530,
surprise.jpg,s,6,0,36,1,92.59523620002437,,,,,,,,,,,,,,,,92.57575780001935,92.59523620002437,94.08645150007214,94.08645150007214,94.10347360000014,94.53849850001279,s,1,0.4486433999845758,None,,,N19,001,2025-03-30_09h22.35.589,416_EXPERIMENT_PSYCHOPY_AU2220019_AU2220225,2024.1.5,None,2025-03-30 09h23.14.177658 +0530,
surprise_upper_blur.jpg,s,6,1,37,4,94.5557390000904,,,,,,,,,,,,,,,,94.54006020002998,94.5557390000904,96.05101550009567,96.05101550009567,96.06781640008558,96.30282200011425,f,0,0.24697670002933592,None,,,N19,001,2025-03-30_09h22.35.589,416_EXPERIMENT_PSYCHOPY_AU2220019_AU2220225,2024.1.5,None,2025-03-30 09h23.14.177658 +0530,
fear_lower_blur.jpg,f,6,2,38,3,96.32112780003808,,,,,,,,,,,,,,,,96.30473400000483,96.32112780003808,97.81577820004895,97.81577820004895,97.83260160009377,98.26780010003131,s,0,0.4347900999709964,None,,,N19,001,2025-03-30_09h22.35.589,416_EXPERIMENT_PSYCHOPY_AU2220019_AU2220225,2024.1.5,None,2025-03-30 09h23.14.177658 +0530,
fear.jpg,f,6,3,39,0,98.28595710010268,,,,,,,,,,,,,,,,98.26915940002073,98.28595710010268,99.78016440011561,99.78016440011561,99.79686920007225,100.28408990008757,f,1,0.49830620002467185,None,,,N19,001,2025-03-30_09h22.35.589,416_EXPERIMENT_PSYCHOPY_AU2220019_AU2220225,2024.1.5,None,2025-03-30 09h23.14.177658 +0530,
fear_upper_blur.jpg,f,6,4,40,2,100.30296730005648,,,,,,,,,,,,,,,,100.28598180005793,100.30296730005648,101.79498870007228,101.79498870007228,101.81195480003953,102.23080130002927,f,1,0.41937110002618283,None,,,N19,001,2025-03-30_09h22.35.589,416_EXPERIMENT_PSYCHOPY_AU2220019_AU2220225,2024.1.5,None,2025-03-30 09h23.14.177658 +0530,
surprise_lower_blur.jpg,s,6,5,41,5,102.2485232000472,,,,,,,,,,,,,,,,102.23260230000596,102.2485232000472,103.74302600009833,103.74302600009833,103.76010080007836,104.17818190006074,s,1,0.42004280001856387,None,,,N19,001,2025-03-30_09h22.35.589,416_EXPERIMENT_PSYCHOPY_AU2220019_AU2220225,2024.1.5,None,2025-03-30 09h23.14.177658 +0530,
surprise_upper_blur.jpg,s,7,0,42,4,104.1949555000756,,,,,,,,,,,,,,,,104.17973860003985,104.1949555000756,105.69150250009261,105.69150250009261,105.70887360000052,106.11047730001155,f,0,0.405970299965702,None,,,N19,001,2025-03-30_09h22.35.589,416_EXPERIMENT_PSYCHOPY_AU2220019_AU2220225,2024.1.5,None,2025-03-30 09h23.14.177658 +0530,
fear_upper_blur.jpg,f,7,1,43,2,106.127466200036,,,,,,,,,,,,,,,,106.11182640003972,106.127466200036,107.62148250010796,107.62148250010796,107.63842640002258,107.94315120007377,f,1,0.3150766999460757,None,,,N19,001,2025-03-30_09h22.35.589,416_EXPERIMENT_PSYCHOPY_AU2220019_AU2220225,2024.1.5,None,2025-03-30 09h23.14.177658 +0530,
surprise.jpg,s,7,2,44,1,107.96870460000355,,,,,,,,,,,,,,,,107.94555180007592,107.96870460000355,109.45466560008936,109.45466560008936,109.47141520003788,109.92310950008687,s,1,0.4518755000317469,None,,,N19,001,2025-03-30_09h22.35.589,416_EXPERIMENT_PSYCHOPY_AU2220019_AU2220225,2024.1.5,None,2025-03-30 09h23.14.177658 +0530,
fear_lower_blur.jpg,f,7,3,45,3,109.94035990000702,,,,,,,,,,,,,,,,109.92440310004167,109.94035990000702,111.436336300103,111.436336300103,111.4526544000255,111.73839650000446,f,1,0.3001438000937924,None,,,N19,001,2025-03-30_09h22.35.589,416_EXPERIMENT_PSYCHOPY_AU2220019_AU2220225,2024.1.5,None,2025-03-30 09h23.14.177658 +0530,
surprise_lower_blur.jpg,s,7,4,46,5,111.75592390005477,,,,,,,,,,,,,,,,111.73980640002992,111.75592390005477,113.2510864000069,113.2510864000069,113.26795920007862,113.75302790000569,s,1,0.4858775999164209,None,,,N19,001,2025-03-30_09h22.35.589,416_EXPERIMENT_PSYCHOPY_AU2220019_AU2220225,2024.1.5,None,2025-03-30 09h23.14.177658 +0530,
fear.jpg,f,7,5,47,0,113.77192570001353,,,,,,,,,,,,,,,,113.75457830005325,113.77192570001353,115.26543750008568,115.26543750008568,115.28237500006799,115.65038100001402,f,1,0.37472179997712374,None,,,N19,001,2025-03-30_09h22.35.589,416_EXPERIMENT_PSYCHOPY_AU2220019_AU2220225,2024.1.5,None,2025-03-30 09h23.14.177658 +0530,
surprise.jpg,s,8,0,48,1,115.66791380010545,,,,,,,,,,,,,,,,115.6520835000556,115.66791380010545,117.16372500010766,117.16372500010766,117.1805382000748,117.63223140011542,s,1,0.45529340009670705,None,,,N19,001,2025-03-30_09h22.35.589,416_EXPERIMENT_PSYCHOPY_AU2220019_AU2220225,2024.1.5,None,2025-03-30 09h23.14.177658 +0530,
fear.jpg,f,8,1,49,0,117.65062440000474,,,,,,,,,,,,,,,,117.63377920002677,117.65062440000474,119.144834500039,119.144834500039,119.16159680008423,119.48153080011252,f,1,0.3345471000066027,None,,,N19,001,2025-03-30_09h22.35.589,416_EXPERIMENT_PSYCHOPY_AU2220019_AU2220225,2024.1.5,None,2025-03-30 09h23.14.177658 +0530,
fear_lower_blur.jpg,f,8,2,50,3,119.49968220002484,,,,,,,,,,,,,,,,119.48290110006928,119.49968220002484,120.99353610002436,120.99353610002436,121.01017270004377,121.52748440008145,f,1,0.5178754000226036,None,,,N19,001,2025-03-30_09h22.35.589,416_EXPERIMENT_PSYCHOPY_AU2220019_AU2220225,2024.1.5,None,2025-03-30 09h23.14.177658 +0530,
fear_upper_blur.jpg,f,8,3,51,2,121.5451739000855,,,,,,,,,,,,,,,,121.5288529000245,121.5451739000855,123.04088870005216,123.04088870005216,123.05814630002715,123.40976320009213,f,1,0.3552499000215903,None,,,N19,001,2025-03-30_09h22.35.589,416_EXPERIMENT_PSYCHOPY_AU2220019_AU2220225,2024.1.5,None,2025-03-30 09h23.14.177658 +0530,
surprise_lower_blur.jpg,s,8,4,52,5,123.42816190002486,,,,,,,,,,,,,,,,123.41097150009591,123.42816190002486,124.92269910010509,124.92269910010509,124.93952470005024,125.3256247000536,s,1,0.3981990000465885,None,,,N19,001,2025-03-30_09h22.35.589,416_EXPERIMENT_PSYCHOPY_AU2220019_AU2220225,2024.1.5,None,2025-03-30 09h23.14.177658 +0530,
surprise_upper_blur.jpg,s,8,5,53,4,125.34511600004043,,,,,,,,,,,,,,,,125.32721580006182,125.34511600004043,126.83687340002507,126.83687340002507,126.85298350010999,127.27428860007785,s,1,0.43368949997238815,None,,,N19,001,2025-03-30_09h22.35.589,416_EXPERIMENT_PSYCHOPY_AU2220019_AU2220225,2024.1.5,None,2025-03-30 09h23.14.177658 +0530,
surprise_upper_blur.jpg,s,9,0,54,4,127.29654290003236,,,,,,,,,,,,,,,,127.27681800001301,127.29654290003236,128.7853270000778,128.7853270000778,128.80243700009305,129.2710536000086,s,1,0.47423340007662773,None,,,N19,001,2025-03-30_09h22.35.589,416_EXPERIMENT_PSYCHOPY_AU2220019_AU2220225,2024.1.5,None,2025-03-30 09h23.14.177658 +0530,
surprise_lower_blur.jpg,s,9,1,55,5,129.2888550000498,,,,,,,,,,,,,,,,129.27227320009843,129.2888550000498,130.78366580000147,130.78366580000147,130.80059830006212,131.36827820003964,s,1,0.5684299999848008,None,,,N19,001,2025-03-30_09h22.35.589,416_EXPERIMENT_PSYCHOPY_AU2220019_AU2220225,2024.1.5,None,2025-03-30 09h23.14.177658 +0530,
fear_lower_blur.jpg,f,9,2,56,3,131.3848720000824,,,,,,,,,,,,,,,,131.36946880002506,131.3848720000824,132.88149500009604,132.88149500009604,132.8980233001057,133.13445970008615,f,1,0.24915159994270653,None,,,N19,001,2025-03-30_09h22.35.589,416_EXPERIMENT_PSYCHOPY_AU2220019_AU2220225,2024.1.5,None,2025-03-30 09h23.14.177658 +0530,
fear.jpg,f,9,3,57,0,133.1532752000494,,,,,,,,,,,,,,,,133.1357700000517,133.1532752000494,134.6460585000459,134.6460585000459,134.66314500011504,134.96626760007348,f,1,0.316622200072743,None,,,N19,001,2025-03-30_09h22.35.589,416_EXPERIMENT_PSYCHOPY_AU2220019_AU2220225,2024.1.5,None,2025-03-30 09h23.14.177658 +0530,
surprise.jpg,s,9,4,58,1,134.9859395000385,,,,,,,,,,,,,,,,134.96795330010355,134.9859395000385,136.47756360005587,136.47756360005587,136.4951706000138,136.69784820009954,f,0,0.218040999956429,None,,,N19,001,2025-03-30_09h22.35.589,416_EXPERIMENT_PSYCHOPY_AU2220019_AU2220225,2024.1.5,None,2025-03-30 09h23.14.177658 +0530,
fear_upper_blur.jpg,f,9,5,59,2,136.71717210009228,,,,,,,,,,,,,,,,136.69941010000184,136.71717210009228,138.20972300006542,138.20972300006542,138.2267387000611,138.49574850010686,f,1,0.2789781999308616,None,,,N19,001,2025-03-30_09h22.35.589,416_EXPERIMENT_PSYCHOPY_AU2220019_AU2220225,2024.1.5,None,2025-03-30 09h23.14.177658 +0530,
fear_upper_blur.jpg,f,10,0,60,2,138.5153347000014,,,,,,,,,,,,,,,,138.49745630007237,138.5153347000014,140.00795980007388,140.00795980007388,140.02477650006767,140.39372550009284,f,1,0.37117970001418144,None,,,N19,001,2025-03-30_09h22.35.589,416_EXPERIMENT_PSYCHOPY_AU2220019_AU2220225,2024.1.5,None,2025-03-30 09h23.14.177658 +0530,
surprise_upper_blur.jpg,s,10,1,61,4,140.41217290004715,,,,,,,,,,,,,,,,140.395401100046,140.41217290004715,141.90593190002255,141.90593190002255,141.92283240007237,142.20790360006504,f,0,0.28603970003314316,None,,,N19,001,2025-03-30_09h22.35.589,416_EXPERIMENT_PSYCHOPY_AU2220019_AU2220225,2024.1.5,None,2025-03-30 09h23.14.177658 +0530,
surprise_lower_blur.jpg,s,10,2,62,5,142.2267910001101,,,,,,,,,,,,,,,,142.20983440009877,142.2267910001101,143.72115680004936,143.72115680004936,143.73752490000334,143.88959020003676,f,0,0.1596971999388188,None,,,N19,001,2025-03-30_09h22.35.589,416_EXPERIMENT_PSYCHOPY_AU2220019_AU2220225,2024.1.5,None,2025-03-30 09h23.14.177658 +0530,
surprise.jpg,s,10,3,63,1,143.90756030008197,,,,,,,,,,,,,,,,143.89138710009865,143.90756030008197,145.40255430003162,145.40255430003162,145.4191853000084,145.72133820003364,f,0,0.31200630008243024,None,,,N19,001,2025-03-30_09h22.35.589,416_EXPERIMENT_PSYCHOPY_AU2220019_AU2220225,2024.1.5,None,2025-03-30 09h23.14.177658 +0530,
fear.jpg,f,10,4,64,0,145.7421425000066,,,,,,,,,,,,,,,,145.72309940005653,145.7421425000066,147.23403190006502,147.23403190006502,147.25169690011535,147.65351260011084,s,0,0.40603730001021177,None,,,N19,001,2025-03-30_09h22.35.589,416_EXPERIMENT_PSYCHOPY_AU2220019_AU2220225,2024.1.5,None,2025-03-30 09h23.14.177658 +0530,
fear_lower_blur.jpg,f,10,5,65,3,147.67206970008556,,,,,,,,,,,,,,,,147.65504450001754,147.67206970008556,149.16530720004812,149.16530720004812,149.18236700003035,149.63414760003798,s,0,0.45580850006081164,None,,,N19,001,2025-03-30_09h22.35.589,416_EXPERIMENT_PSYCHOPY_AU2220019_AU2220225,2024.1.5,None,2025-03-30 09h23.14.177658 +0530,
fear.jpg,f,11,0,66,0,149.65214890008792,,,,,,,,,,,,,,,,149.6355178001104,149.65214890008792,151.1466254000552,151.1466254000552,151.1636853000382,151.71650290000252,f,1,0.5646001000422984,None,,,N19,001,2025-03-30_09h22.35.589,416_EXPERIMENT_PSYCHOPY_AU2220019_AU2220225,2024.1.5,None,2025-03-30 09h23.14.177658 +0530,
surprise_lower_blur.jpg,s,11,1,67,5,151.73533960001078,,,,,,,,,,,,,,,,151.71790960000362,151.73533960001078,153.22788140003104,153.22788140003104,153.2447939000558,153.64589020004496,s,1,0.4014126999536529,None,,,N19,001,2025-03-30_09h22.35.589,416_EXPERIMENT_PSYCHOPY_AU2220019_AU2220225,2024.1.5,None,2025-03-30 09h23.14.177658 +0530,
fear_upper_blur.jpg,f,11,2,68,2,153.66313900006935,,,,,,,,,,,,,,,,153.64720060001127,153.66313900006935,155.16012870008126,155.16012870008126,155.17675630003214,155.59576070006005,f,1,0.433389600017108,None,,,N19,001,2025-03-30_09h22.35.589,416_EXPERIMENT_PSYCHOPY_AU2220019_AU2220225,2024.1.5,None,2025-03-30 09h23.14.177658 +0530,
surprise_upper_blur.jpg,s,11,3,69,4,155.61462970008142,,,,,,,,,,,,,,,,155.5973173000384,155.61462970008142,157.10715809999965,157.10715809999965,157.12525780010037,157.69322730007116,s,1,0.5764282000018284,None,,,N19,001,2025-03-30_09h22.35.589,416_EXPERIMENT_PSYCHOPY_AU2220019_AU2220225,2024.1.5,None,2025-03-30 09h23.14.177658 +0530,
surprise.jpg,s,11,4,70,1,157.71177310007624,,,,,,,,,,,,,,,,157.69461800006684,157.71177310007624,159.20538300008047,159.20538300008047,159.22257820004597,159.5749717000872,f,0,0.3655519000021741,None,,,N19,001,2025-03-30_09h22.35.589,416_EXPERIMENT_PSYCHOPY_AU2220019_AU2220225,2024.1.5,None,2025-03-30 09h23.14.177658 +0530,
fear_lower_blur.jpg,f,11,5,71,3,159.59439460001886,,,,,,,,,,,,,,,,159.5766534000868,159.59439460001886,161.08747430006042,161.08747430006042,161.10357910010498,161.45662420010194,f,1,0.36265370005276054,None,,,N19,001,2025-03-30_09h22.35.589,416_EXPERIMENT_PSYCHOPY_AU2220019_AU2220225,2024.1.5,None,2025-03-30 09h23.14.177658 +0530,
fear_upper_blur.jpg,f,12,0,72,2,161.4748844000278,,,,,,,,,,,,,,,,161.45824690000154,161.4748844000278,162.96850340010133,162.96850340010133,162.98550520010758,163.37062510009855,s,0,0.3900302000110969,None,,,N19,001,2025-03-30_09h22.35.589,416_EXPERIMENT_PSYCHOPY_AU2220019_AU2220225,2024.1.5,None,2025-03-30 09h23.14.177658 +0530,
surprise.jpg,s,12,1,73,1,163.38840370008256,,,,,,,,,,,,,,,,163.37204210006166,163.38840370008256,164.88311610009987,164.88311610009987,164.90055950009264,165.28489920007996,s,1,0.39462339994497597,None,,,N19,001,2025-03-30_09h22.35.589,416_EXPERIMENT_PSYCHOPY_AU2220019_AU2220225,2024.1.5,None,2025-03-30 09h23.14.177658 +0530,
fear.jpg,f,12,2,74,0,165.30496310000308,,,,,,,,,,,,,,,,165.2869865000248,165.30496310000308,166.79784460004885,166.79784460004885,166.81522290001158,167.13346340006683,s,0,0.3322697998955846,None,,,N19,001,2025-03-30_09h22.35.589,416_EXPERIMENT_PSYCHOPY_AU2220019_AU2220225,2024.1.5,None,2025-03-30 09h23.14.177658 +0530,
fear_lower_blur.jpg,f,12,3,75,3,167.15505410009064,,,,,,,,,,,,,,,,167.13580640009604,167.15505410009064,168.64742290007416,168.64742290007416,168.66344070003834,169.11562010005582,f,1,0.4644249000120908,None,,,N19,001,2025-03-30_09h22.35.589,416_EXPERIMENT_PSYCHOPY_AU2220019_AU2220225,2024.1.5,None,2025-03-30 09h23.14.177658 +0530,
surprise_upper_blur.jpg,s,12,4,76,4,169.13532440003473,,,,,,,,,,,,,,,,169.11766810005065,169.13532440003473,170.62778670003172,170.62778670003172,170.6445949000772,171.06268390000332,s,1,0.42439409997314215,None,,,N19,001,2025-03-30_09h22.35.589,416_EXPERIMENT_PSYCHOPY_AU2220019_AU2220225,2024.1.5,None,2025-03-30 09h23.14.177658 +0530,
surprise_lower_blur.jpg,s,12,5,77,5,171.0793625001097,,,,,,,,,,,,,,,,171.06386940006632,171.0793625001097,172.57561300008092,172.57561300008092,172.5931456000544,173.01120020006783,s,1,0.4331383000826463,None,,,N19,001,2025-03-30_09h22.35.589,416_EXPERIMENT_PSYCHOPY_AU2220019_AU2220225,2024.1.5,None,2025-03-30 09h23.14.177658 +0530,
surprise_upper_blur.jpg,s,13,0,78,4,173.02810280001722,,,,,,,,,,,,,,,,173.01241160009522,173.02810280001722,174.5238494001096,174.5238494001096,174.54136690008454,174.92650300008245,f,0,0.38689600001089275,None,,,N19,001,2025-03-30_09h22.35.589,416_EXPERIMENT_PSYCHOPY_AU2220019_AU2220225,2024.1.5,None,2025-03-30 09h23.14.177658 +0530,
fear.jpg,f,13,1,79,0,174.9453363000648,,,,,,,,,,,,,,,,174.9277732000919,174.9453363000648,176.43829060008284,176.43829060008284,176.45577840006445,176.75678650010377,f,1,0.30867850000504404,None,,,N19,001,2025-03-30_09h22.35.589,416_EXPERIMENT_PSYCHOPY_AU2220019_AU2220225,2024.1.5,None,2025-03-30 09h23.14.177658 +0530,
surprise.jpg,s,13,2,80,1,176.77570090000518,,,,,,,,,,,,,,,,176.75815130001865,176.77570090000518,178.27031940000597,178.27031940000597,178.28704580001067,178.6390209000092,s,1,0.3594581000506878,None,,,N19,001,2025-03-30_09h22.35.589,416_EXPERIMENT_PSYCHOPY_AU2220019_AU2220225,2024.1.5,None,2025-03-30 09h23.14.177658 +0530,
fear_upper_blur.jpg,f,13,3,81,2,178.65669640002307,,,,,,,,,,,,,,,,178.64033620001283,178.65669640002307,180.1511029000394,180.1511029000394,180.1687359000789,180.48731820005924,f,1,0.3340567999985069,None,,,N19,001,2025-03-30_09h22.35.589,416_EXPERIMENT_PSYCHOPY_AU2220019_AU2220225,2024.1.5,None,2025-03-30 09h23.14.177658 +0530,
fear_lower_blur.jpg,f,13,4,82,3,180.50559820001945,,,,,,,,,,,,,,,,180.4887247000588,180.50559820001945,182.00041980005335,182.00041980005335,182.01677990006283,182.41899700008798,s,0,0.4153783000074327,None,,,N19,001,2025-03-30_09h22.35.589,416_EXPERIMENT_PSYCHOPY_AU2220019_AU2220225,2024.1.5,None,2025-03-30 09h23.14.177658 +0530,
surprise_lower_blur.jpg,s,13,5,83,5,182.43672550003976,,,,,,,,,,,,,,,,182.4204991000006,182.43672550003976,183.93117120000534,183.93117120000534,183.94806760002393,184.26594599999953,f,0,0.3223139999900013,None,,,N19,001,2025-03-30_09h22.35.589,416_EXPERIMENT_PSYCHOPY_AU2220019_AU2220225,2024.1.5,None,2025-03-30 09h23.14.177658 +0530,
fear.jpg,f,14,0,84,0,184.2846686000703,,,,,,,,,,,,,,,,184.26749440003186,184.2846686000703,185.77831160009373,185.77831160009373,185.7952694001142,186.11665050010197,f,1,0.3334157000062987,None,,,N19,001,2025-03-30_09h22.35.589,416_EXPERIMENT_PSYCHOPY_AU2220019_AU2220225,2024.1.5,None,2025-03-30 09h23.14.177658 +0530,
fear_lower_blur.jpg,f,14,1,85,3,186.151004100102,,,,,,,,,,,,,,,,186.1195986000821,186.151004100102,187.6283358000219,187.6283358000219,187.66131580004003,187.92910550010856,f,1,0.28910360008012503,None,,,N19,001,2025-03-30_09h22.35.589,416_EXPERIMENT_PSYCHOPY_AU2220019_AU2220225,2024.1.5,None,2025-03-30 09h23.14.177658 +0530,
surprise_lower_blur.jpg,s,14,2,86,5,187.94654360006098,,,,,,,,,,,,,,,,187.93074990005698,187.94654360006098,189.44308820005972,189.44308820005972,189.45971700001974,189.86233970010653,s,1,0.41341270005796105,None,,,N19,001,2025-03-30_09h22.35.589,416_EXPERIMENT_PSYCHOPY_AU2220019_AU2220225,2024.1.5,None,2025-03-30 09h23.14.177658 +0530,
surprise.jpg,s,14,3,87,1,189.88560510007665,,,,,,,,,,,,,,,,189.86457910004538,189.88560510007665,191.37418680009432,191.37418680009432,191.39019930001814,191.79232910007704,s,1,0.40149850002489984,None,,,N19,001,2025-03-30_09h22.35.589,416_EXPERIMENT_PSYCHOPY_AU2220019_AU2220225,2024.1.5,None,2025-03-30 09h23.14.177658 +0530,
surprise_upper_blur.jpg,s,14,4,88,4,191.8092346000485,,,,,,,,,,,,,,,,191.79357080010232,191.8092346000485,193.30562650004867,193.30562650004867,193.32236970006488,193.74095090001356,s,1,0.4302481999620795,None,,,N19,001,2025-03-30_09h22.35.589,416_EXPERIMENT_PSYCHOPY_AU2220019_AU2220225,2024.1.5,None,2025-03-30 09h23.14.177658 +0530,
fear_upper_blur.jpg,f,14,5,89,2,193.75867360003758,,,,,,,,,,,,,,,,193.74263880006038,193.75867360003758,195.25388910004403,195.25388910004403,195.2695698000025,195.5884503000416,s,0,0.3255574000068009,None,,,N19,001,2025-03-30_09h22.35.589,416_EXPERIMENT_PSYCHOPY_AU2220019_AU2220225,2024.1.5,None,2025-03-30 09h23.14.177658 +0530,
surprise.jpg,s,15,0,90,1,195.6072421000572,,,,,,,,,,,,,,,,195.59002250002231,195.6072421000572,197.10153210000135,197.10153210000135,197.11854460008908,197.55367660010234,s,1,0.4389432999305427,None,,,N19,001,2025-03-30_09h22.35.589,416_EXPERIMENT_PSYCHOPY_AU2220019_AU2220225,2024.1.5,None,2025-03-30 09h23.14.177658 +0530,
fear_lower_blur.jpg,f,15,1,91,3,197.57125810009893,,,,,,,,,,,,,,,,197.55511690001003,197.57125810009893,199.06645190005656,199.06645190005656,199.08355040010065,199.4520676000975,f,1,0.37186880002263933,None,,,N19,001,2025-03-30_09h22.35.589,416_EXPERIMENT_PSYCHOPY_AU2220019_AU2220225,2024.1.5,None,2025-03-30 09h23.14.177658 +0530,
fear.jpg,f,15,2,92,0,199.47062780009583,,,,,,,,,,,,,,,,199.45323880005162,199.47062780009583,200.96444730006624,200.96444730006624,200.98079200007487,201.3849512001034,f,1,0.4151137999724597,None,,,N19,001,2025-03-30_09h22.35.589,416_EXPERIMENT_PSYCHOPY_AU2220019_AU2220225,2024.1.5,None,2025-03-30 09h23.14.177658 +0530,
fear_upper_blur.jpg,f,15,3,93,2,201.40518420003355,,,,,,,,,,,,,,,,201.3866445000749,201.40518420003355,202.89559560001362,202.89559560001362,202.91242780000903,203.34853120008484,f,1,0.43799570004921407,None,,,N19,001,2025-03-30_09h22.35.589,416_EXPERIMENT_PSYCHOPY_AU2220019_AU2220225,2024.1.5,None,2025-03-30 09h23.14.177658 +0530,
surprise_lower_blur.jpg,s,15,4,94,5,203.36750750010833,,,,,,,,,,,,,,,,203.34987470007036,203.36750750010833,204.86076580011286,204.86076580011286,204.8778928000247,205.26287299999967,s,1,0.3973256000317633,None,,,N19,001,2025-03-30_09h22.35.589,416_EXPERIMENT_PSYCHOPY_AU2220019_AU2220225,2024.1.5,None,2025-03-30 09h23.14.177658 +0530,
surprise_upper_blur.jpg,s,15,5,95,4,205.28349560010247,,,,,,,,,,,,,,,,205.26448750006966,205.28349560010247,206.77514979999978,206.77514979999978,206.79195710003842,207.1276124001015,f,0,0.34914970002137125,None,,,N19,001,2025-03-30_09h22.35.589,416_EXPERIMENT_PSYCHOPY_AU2220019_AU2220225,2024.1.5,None,2025-03-30 09h23.14.177658 +0530,
fear_upper_blur.jpg,f,16,0,96,2,207.14576090010814,,,,,,,,,,,,,,,,207.1290364000015,207.14576090010814,208.6404449000256,208.6404449000256,208.65735020011198,209.10992090008222,f,1,0.46448209998197854,None,,,N19,001,2025-03-30_09h22.35.589,416_EXPERIMENT_PSYCHOPY_AU2220019_AU2220225,2024.1.5,None,2025-03-30 09h23.14.177658 +0530,
surprise.jpg,s,16,1,97,1,209.12901800009422,,,,,,,,,,,,,,,,209.11136030009948,209.12901800009422,210.6210746000288,210.6210746000288,210.63744650001172,211.05784390005283,s,1,0.4318087000865489,None,,,N19,001,2025-03-30_09h22.35.589,416_EXPERIMENT_PSYCHOPY_AU2220019_AU2220225,2024.1.5,None,2025-03-30 09h23.14.177658 +0530,
fear.jpg,f,16,2,98,0,211.0776257000398,,,,,,,,,,,,,,,,211.05938350001816,211.0776257000398,212.57026730000507,212.57026730000507,212.58650220010895,212.92195870005526,f,1,0.3413731000619009,None,,,N19,001,2025-03-30_09h22.35.589,416_EXPERIMENT_PSYCHOPY_AU2220019_AU2220225,2024.1.5,None,2025-03-30 09h23.14.177658 +0530,
surprise_upper_blur.jpg,s,16,3,99,4,212.94003600010183,,,,,,,,,,,,,,,,212.9233984000748,212.94003600010183,214.43513490003534,214.43513490003534,214.4513662001118,214.8036736000795,s,1,0.36620679998304695,None,,,N19,001,2025-03-30_09h22.35.589,416_EXPERIMENT_PSYCHOPY_AU2220019_AU2220225,2024.1.5,None,2025-03-30 09h23.14.177658 +0530,
surprise_lower_blur.jpg,s,16,4,100,5,214.82203310006298,,,,,,,,,,,,,,,,214.8052777000703,214.82203310006298,216.31664590002038,216.31664590002038,216.3333412000211,216.7184820000548,f,0,0.3853261999320239,None,,,N19,001,2025-03-30_09h22.35.589,416_EXPERIMENT_PSYCHOPY_AU2220019_AU2220225,2024.1.5,None,2025-03-30 09h23.14.177658 +0530,
fear_lower_blur.jpg,f,16,5,101,3,216.73622770002112,,,,,,,,,,,,,,,,216.71967920009047,216.73622770002112,218.23071400006302,218.23071400006302,218.2479010000825,218.83384970005136,f,1,0.6012869999976829,None,,,N19,001,2025-03-30_09h22.35.589,416_EXPERIMENT_PSYCHOPY_AU2220019_AU2220225,2024.1.5,None,2025-03-30 09h23.14.177658 +0530,
surprise.jpg,s,17,0,102,1,218.854527000105,,,,,,,,,,,,,,,,218.83520810003392,218.854527000105,220.34573140006978,220.34573140006978,220.36224600009155,220.7473724000156,s,1,0.39145100000314415,None,,,N19,001,2025-03-30_09h22.35.589,416_EXPERIMENT_PSYCHOPY_AU2220019_AU2220225,2024.1.5,None,2025-03-30 09h23.14.177658 +0530,
surprise_upper_blur.jpg,s,17,1,103,4,220.76446700002998,,,,,,,,,,,,,,,,220.748682100093,220.76446700002998,222.26089300005697,222.26089300005697,222.27749470004346,222.74771330005024,s,1,0.48360590008087456,None,,,N19,001,2025-03-30_09h22.35.589,416_EXPERIMENT_PSYCHOPY_AU2220019_AU2220225,2024.1.5,None,2025-03-30 09h23.14.177658 +0530,
fear_lower_blur.jpg,f,17,2,104,3,222.77606890001334,,,,,,,,,,,,,,,,222.75042940001003,222.77606890001334,224.25807340000756,224.25807340000756,224.29169290000573,224.6770141000161,f,1,0.40360850002616644,None,,,N19,001,2025-03-30_09h22.35.589,416_EXPERIMENT_PSYCHOPY_AU2220019_AU2220225,2024.1.5,None,2025-03-30 09h23.14.177658 +0530,
fear_upper_blur.jpg,f,17,3,105,2,224.6952271000482,,,,,,,,,,,,,,,,224.6783230000874,224.6952271000482,226.18939870002214,226.18939870002214,226.20599550008774,226.6420503000263,f,1,0.4497552999528125,None,,,N19,001,2025-03-30_09h22.35.589,416_EXPERIMENT_PSYCHOPY_AU2220019_AU2220225,2024.1.5,None,2025-03-30 09h23.14.177658 +0530,
surprise_lower_blur.jpg,s,17,4,106,5,226.6596688000718,,,,,,,,,,,,,,,,226.64325890003238,226.6596688000718,228.15354860003572,228.15354860003572,228.1701555000618,228.62476650008466,s,1,0.4644533001119271,None,,,N19,001,2025-03-30_09h22.35.589,416_EXPERIMENT_PSYCHOPY_AU2220019_AU2220225,2024.1.5,None,2025-03-30 09h23.14.177658 +0530,
fear.jpg,f,17,5,107,0,228.65315680007916,,,,,,,,,,,,,,,,228.6264481000835,228.65315680007916,230.1357798000099,230.1357798000099,230.15317280008458,230.4711598000722,f,1,0.32515119994059205,None,,,N19,001,2025-03-30_09h22.35.589,416_EXPERIMENT_PSYCHOPY_AU2220019_AU2220225,2024.1.5,None,2025-03-30 09h23.14.177658 +0530,
fear_lower_blur.jpg,f,18,0,108,3,230.48925520002376,,,,,,,,,,,,,,,,230.4727067000931,230.48925520002376,231.9840402000118,231.9840402000118,232.0009498000145,232.36758730001748,f,1,0.3734678999753669,None,,,N19,001,2025-03-30_09h22.35.589,416_EXPERIMENT_PSYCHOPY_AU2220019_AU2220225,2024.1.5,None,2025-03-30 09h23.14.177658 +0530,
surprise_lower_blur.jpg,s,18,1,109,5,232.38401450007223,,,,,,,,,,,,,,,,232.36903260007966,232.38401450007223,233.8822891000891,233.8822891000891,233.89941589999944,234.30229980009608,s,1,0.41617039998527616,None,,,N19,001,2025-03-30_09h22.35.589,416_EXPERIMENT_PSYCHOPY_AU2220019_AU2220225,2024.1.5,None,2025-03-30 09h23.14.177658 +0530,
surprise.jpg,s,18,2,110,1,234.32283260009717,,,,,,,,,,,,,,,,234.30407080007717,234.32283260009717,235.8134739000816,235.8134739000816,235.8309991999995,236.34864140010905,s,1,0.5326967000728473,None,,,N19,001,2025-03-30_09h22.35.589,416_EXPERIMENT_PSYCHOPY_AU2220019_AU2220225,2024.1.5,None,2025-03-30 09h23.14.177658 +0530,
surprise_upper_blur.jpg,s,18,3,111,4,236.36867870006245,,,,,,,,,,,,,,,,236.35075670003425,236.36867870006245,237.8613302001031,237.8613302001031,237.87833000009414,238.5781672000885,s,1,0.7040063999593258,None,,,N19,001,2025-03-30_09h22.35.589,416_EXPERIMENT_PSYCHOPY_AU2220019_AU2220225,2024.1.5,None,2025-03-30 09h23.14.177658 +0530,
fear.jpg,f,18,4,112,0,238.59545520006213,,,,,,,,,,,,,,,,238.57906200003345,238.59545520006213,240.09234620002098,240.09234620002098,240.10966260009445,240.5110448000487,f,1,0.4057208000449464,None,,,N19,001,2025-03-30_09h22.35.589,416_EXPERIMENT_PSYCHOPY_AU2220019_AU2220225,2024.1.5,None,2025-03-30 09h23.14.177658 +0530,
fear_upper_blur.jpg,f,18,5,113,2,240.5279541000491,,,,,,,,,,,,,,,,240.51235410000663,240.5279541000491,242.02407940011472,242.02407940011472,242.04083320009522,242.44275470008142,f,1,0.41132790001574904,None,,,N19,001,2025-03-30_09h22.35.589,416_EXPERIMENT_PSYCHOPY_AU2220019_AU2220225,2024.1.5,None,2025-03-30 09h23.14.177658 +0530,
surprise.jpg,s,19,0,114,1,242.46957860002294,,,,,,,,,,,,,,,,242.4442882000003,242.46957860002294,243.95560500002466,243.95560500002466,243.97341860004235,244.45814470003825,s,1,0.49901589995715767,None,,,N19,001,2025-03-30_09h22.35.589,416_EXPERIMENT_PSYCHOPY_AU2220019_AU2220225,2024.1.5,None,2025-03-30 09h23.14.177658 +0530,
fear_upper_blur.jpg,f,19,1,115,2,244.47631040005945,,,,,,,,,,,,,,,,244.45951720001176,244.47631040005945,245.9704007001128,245.9704007001128,245.98763410001993,246.40573120000772,f,1,0.4194489000365138,None,,,N19,001,2025-03-30_09h22.35.589,416_EXPERIMENT_PSYCHOPY_AU2220019_AU2220225,2024.1.5,None,2025-03-30 09h23.14.177658 +0530,
fear_lower_blur.jpg,f,19,2,116,3,246.4278679001145,,,,,,,,,,,,,,,,246.40689830004703,246.4278679001145,247.91839260002598,247.91839260002598,247.93462140008342,248.28708500007633,f,1,0.35688680002931505,None,,,N19,001,2025-03-30_09h22.35.589,416_EXPERIMENT_PSYCHOPY_AU2220019_AU2220225,2024.1.5,None,2025-03-30 09h23.14.177658 +0530,
surprise_upper_blur.jpg,s,19,3,117,4,248.30783350009006,,,,,,,,,,,,,,,,248.28829640010372,248.30783350009006,249.80066040006932,249.80066040006932,249.81760010006838,250.25302280008327,s,1,0.4483845999930054,None,,,N19,001,2025-03-30_09h22.35.589,416_EXPERIMENT_PSYCHOPY_AU2220019_AU2220225,2024.1.5,None,2025-03-30 09h23.14.177658 +0530,
surprise_lower_blur.jpg,s,19,4,118,5,250.27071810001507,,,,,,,,,,,,,,,,250.2543068000814,250.27071810001507,251.76478860003408,251.76478860003408,251.78232650004793,252.20066000008956,s,1,0.431353299994953,None,,,N19,001,2025-03-30_09h22.35.589,416_EXPERIMENT_PSYCHOPY_AU2220019_AU2220225,2024.1.5,None,2025-03-30 09h23.14.177658 +0530,
fear.jpg,f,19,5,119,0,252.22078010009136,,,,,,,,,,,,,,,,252.20228920003865,252.22078010009136,253.71311300003435,253.71311300003435,253.72984120005276,254.09796060004737,f,1,0.37959699996281415,None,,,N19,001,2025-03-30_09h22.35.589,416_EXPERIMENT_PSYCHOPY_AU2220019_AU2220225,2024.1.5,None,2025-03-30 09h23.14.177658 +0530,
