stimulus_image,correct_response,loop.thisRepN,loop.thisTrialN,loop.thisN,loop.thisIndex,thisRow.t,notes,guide.started,instructions.started,ins_resp.started,guide.stopped,ins_resp.keys,ins_resp.rt,ins_resp.duration,guide_2.started,ins_resp_2.started,instructions_2.started,guide_2.stopped,ins_resp_2.keys,ins_resp_2.rt,ins_resp_2.duration,trial.started,fixation.started,image.started,key_resp.started,fixation.stopped,trial.stopped,key_resp.keys,key_resp.corr,key_resp.rt,key_resp.duration,image.stopped,key_resp.stopped,participant,session,date,expName,psychopyVersion,frameRate,expStart,
,,,,,,,,0.0031163999810814857,0.01750990003347397,0.01750990003347397,6.192148600006476,space,6.076266000047326,None,,,,,,,,,,,,,,,,,,,,N20,001,2025-04-08_10h37.12.526,416_EXPERIMENT_PSYCHOPY_AU2220019_AU2220225,2024.1.5,None,2025-04-08 10h37.30.614949 +0530,
,,,,,,,,,,,,,,,6.192193199880421,6.195524400100112,6.195524400100112,7.6280610000249,space,1.4220451000146568,None,,,,,,,,,,,,,N20,001,2025-04-08_10h37.12.526,416_EXPERIMENT_PSYCHOPY_AU2220019_AU2220225,2024.1.5,None,2025-04-08 10h37.30.614949 +0530,
fear.jpg,f,0,0,0,0,7.725166999967769,,,,,,,,,,,,,,,,7.700405000010505,7.725166999967769,9.215958399930969,9.215958399930969,9.225641400087625,9.809517499990761,f,1,0.5766994000878185,None,,,N20,001,2025-04-08_10h37.12.526,416_EXPERIMENT_PSYCHOPY_AU2220019_AU2220225,2024.1.5,None,2025-04-08 10h37.30.614949 +0530,
surprise_lower_blur.jpg,s,0,1,1,5,9.832182900048792,,,,,,,,,,,,,,,,9.812168600037694,9.832182900048792,11.323764499975368,11.323764499975368,11.340305600082502,11.77376229991205,s,1,0.43602919997647405,None,,,N20,001,2025-04-08_10h37.12.526,416_EXPERIMENT_PSYCHOPY_AU2220019_AU2220225,2024.1.5,None,2025-04-08 10h37.30.614949 +0530,
fear_upper_blur.jpg,f,0,2,2,2,11.819262000033632,,,,,,,,,,,,,,,,11.77432020008564,11.819262000033632,13.288594200043008,13.288594200043008,13.321205999935046,14.021658000070602,None,0,,,14.080755400005728,14.080755400005728,N20,001,2025-04-08_10h37.12.526,416_EXPERIMENT_PSYCHOPY_AU2220019_AU2220225,2024.1.5,None,2025-04-08 10h37.30.614949 +0530,
surprise_upper_blur.jpg,s,0,3,3,4,14.080755400005728,,,,,,,,,,,,,,,,14.022129300050437,14.080755400005728,15.536610099952668,15.536610099952668,15.58611200004816,15.953628299990669,s,1,0.40973709989339113,None,,,N20,001,2025-04-08_10h37.12.526,416_EXPERIMENT_PSYCHOPY_AU2220019_AU2220225,2024.1.5,None,2025-04-08 10h37.30.614949 +0530,
surprise.jpg,s,0,4,4,1,16.01715449988842,,,,,,,,,,,,,,,,15.954733999911696,16.01715449988842,17.468111800029874,17.468111800029874,17.517831000033766,17.918094499967992,s,1,0.43799689994193614,None,,,N20,001,2025-04-08_10h37.12.526,416_EXPERIMENT_PSYCHOPY_AU2220019_AU2220225,2024.1.5,None,2025-04-08 10h37.30.614949 +0530,
fear_lower_blur.jpg,f,0,5,5,3,17.96793229994364,,,,,,,,,,,,,,,,17.918739899992943,17.96793229994364,19.432369699934497,19.432369699934497,19.483369800029323,19.883178799878806,s,0,0.44985500001348555,None,,,N20,001,2025-04-08_10h37.12.526,416_EXPERIMENT_PSYCHOPY_AU2220019_AU2220225,2024.1.5,None,2025-04-08 10h37.30.614949 +0530,
surprise.jpg,s,1,0,6,1,19.897887900006026,,,,,,,,,,,,,,,,19.883747200015932,19.897887900006026,21.39662480005063,21.39662480005063,21.39662480005063,21.913685099920258,s,1,0.5150801001582295,None,,,N20,001,2025-04-08_10h37.12.526,416_EXPERIMENT_PSYCHOPY_AU2220019_AU2220225,2024.1.5,None,2025-04-08 10h37.30.614949 +0530,
surprise_upper_blur.jpg,s,1,1,7,4,21.929315600078553,,,,,,,,,,,,,,,,21.91426569991745,21.929315600078553,23.42949889996089,23.42949889996089,23.42949889996089,23.87924770009704,f,0,0.4452704000286758,None,,,N20,001,2025-04-08_10h37.12.526,416_EXPERIMENT_PSYCHOPY_AU2220019_AU2220225,2024.1.5,None,2025-04-08 10h37.30.614949 +0530,
fear.jpg,f,1,2,8,0,23.894087299937382,,,,,,,,,,,,,,,,23.87994599994272,23.894087299937382,25.393187300069258,25.393187300069258,25.393187300069258,25.960638500051573,f,1,0.5504634999670088,None,,,N20,001,2025-04-08_10h37.12.526,416_EXPERIMENT_PSYCHOPY_AU2220019_AU2220225,2024.1.5,None,2025-04-08 10h37.30.614949 +0530,
fear_lower_blur.jpg,f,1,3,9,3,25.97532660001889,,,,,,,,,,,,,,,,25.96120660007,25.97532660001889,27.474265000084415,27.474265000084415,27.474265000084415,28.04242240008898,f,1,0.5653156999032944,None,,,N20,001,2025-04-08_10h37.12.526,416_EXPERIMENT_PSYCHOPY_AU2220019_AU2220225,2024.1.5,None,2025-04-08 10h37.30.614949 +0530,
surprise_lower_blur.jpg,s,1,4,10,5,28.057231500046328,,,,,,,,,,,,,,,,28.04299580003135,28.057231500046328,29.556068199919537,29.556068199919537,29.556068199919537,30.040713499998674,s,1,0.4795325000304729,None,,,N20,001,2025-04-08_10h37.12.526,416_EXPERIMENT_PSYCHOPY_AU2220019_AU2220225,2024.1.5,None,2025-04-08 10h37.30.614949 +0530,
fear_upper_blur.jpg,f,1,5,11,2,30.05524539994076,,,,,,,,,,,,,,,,30.04135790001601,30.05524539994076,31.5549214000348,31.5549214000348,31.5549214000348,31.972118299920112,f,1,0.4070813001599163,None,,,N20,001,2025-04-08_10h37.12.526,416_EXPERIMENT_PSYCHOPY_AU2220019_AU2220225,2024.1.5,None,2025-04-08 10h37.30.614949 +0530,
surprise.jpg,s,2,0,12,1,31.986794600030407,,,,,,,,,,,,,,,,31.972690700087696,31.986794600030407,33.48558219987899,33.48558219987899,33.50140649988316,33.93648899998516,s,1,0.4396569000091404,None,,,N20,001,2025-04-08_10h37.12.526,416_EXPERIMENT_PSYCHOPY_AU2220019_AU2220225,2024.1.5,None,2025-04-08 10h37.30.614949 +0530,
fear_lower_blur.jpg,f,2,1,13,3,33.952174300095066,,,,,,,,,,,,,,,,33.93769449996762,33.952174300095066,35.449955800082535,35.449955800082535,35.466224800096825,36.00041379989125,f,1,0.5381883000954986,None,,,N20,001,2025-04-08_10h37.12.526,416_EXPERIMENT_PSYCHOPY_AU2220019_AU2220225,2024.1.5,None,2025-04-08 10h37.30.614949 +0530,
surprise_lower_blur.jpg,s,2,2,14,5,36.0162307000719,,,,,,,,,,,,,,,,36.001417600084096,36.0162307000719,37.514647499891,37.514647499891,37.514647499891,37.96684830007143,s,1,0.4492474999278784,None,,,N20,001,2025-04-08_10h37.12.526,416_EXPERIMENT_PSYCHOPY_AU2220019_AU2220225,2024.1.5,None,2025-04-08 10h37.30.614949 +0530,
surprise_upper_blur.jpg,s,2,3,15,4,37.996936700074,,,,,,,,,,,,,,,,37.96835940005258,37.996936700074,39.4798830000218,39.4798830000218,39.496983600081876,40.08027829998173,s,1,0.5989173001144081,None,,,N20,001,2025-04-08_10h37.12.526,416_EXPERIMENT_PSYCHOPY_AU2220019_AU2220225,2024.1.5,None,2025-04-08 10h37.30.614949 +0530,
fear_upper_blur.jpg,f,2,4,16,2,40.09529870003462,,,,,,,,,,,,,,,,40.08087350009009,40.09529870003462,41.59379080007784,41.59379080007784,41.61087269987911,42.17869449988939,f,1,0.5727496000472456,None,,,N20,001,2025-04-08_10h37.12.526,416_EXPERIMENT_PSYCHOPY_AU2220019_AU2220225,2024.1.5,None,2025-04-08 10h37.30.614949 +0530,
fear.jpg,f,2,5,17,0,42.193506699986756,,,,,,,,,,,,,,,,42.17929039988667,42.193506699986756,43.69212969997898,43.69212969997898,43.69212969997898,44.158980099949986,f,1,0.4541078999172896,None,,,N20,001,2025-04-08_10h37.12.526,416_EXPERIMENT_PSYCHOPY_AU2220019_AU2220225,2024.1.5,None,2025-04-08 10h37.30.614949 +0530,
surprise.jpg,s,3,0,18,1,44.174547699978575,,,,,,,,,,,,,,,,44.15952989994548,44.174547699978575,45.672898799879476,45.672898799879476,45.69035329995677,46.20812750002369,s,1,0.5220035000238568,None,,,N20,001,2025-04-08_10h37.12.526,416_EXPERIMENT_PSYCHOPY_AU2220019_AU2220225,2024.1.5,None,2025-04-08 10h37.30.614949 +0530,
surprise_upper_blur.jpg,s,3,1,19,4,46.22223539999686,,,,,,,,,,,,,,,,46.20867699990049,46.22223539999686,47.721550500020385,47.721550500020385,47.721550500020385,48.371600799961016,s,1,0.6350104999728501,None,,,N20,001,2025-04-08_10h37.12.526,416_EXPERIMENT_PSYCHOPY_AU2220019_AU2220225,2024.1.5,None,2025-04-08 10h37.30.614949 +0530,
fear_lower_blur.jpg,f,3,2,20,3,48.38733609998599,,,,,,,,,,,,,,,,48.37214530003257,48.38733609998599,49.88625520002097,49.88625520002097,49.90318879997358,50.53636989998631,f,1,0.6444023998919874,None,,,N20,001,2025-04-08_10h37.12.526,416_EXPERIMENT_PSYCHOPY_AU2220019_AU2220225,2024.1.5,None,2025-04-08 10h37.30.614949 +0530,
fear.jpg,f,3,3,21,0,50.551541900029406,,,,,,,,,,,,,,,,50.537043899996206,50.551541900029406,52.050382300047204,52.050382300047204,52.066975499968976,52.584577299887314,f,1,0.5177531000226736,None,,,N20,001,2025-04-08_10h37.12.526,416_EXPERIMENT_PSYCHOPY_AU2220019_AU2220225,2024.1.5,None,2025-04-08 10h37.30.614949 +0530,
fear_upper_blur.jpg,f,3,4,22,2,52.6005382000003,,,,,,,,,,,,,,,,52.58572299988009,52.6005382000003,54.09774470003322,54.09774470003322,54.11475570010953,54.748681199969724,f,1,0.6352142000105232,None,,,N20,001,2025-04-08_10h37.12.526,416_EXPERIMENT_PSYCHOPY_AU2220019_AU2220225,2024.1.5,None,2025-04-08 10h37.30.614949 +0530,
surprise_lower_blur.jpg,s,3,5,23,5,54.764228800078854,,,,,,,,,,,,,,,,54.749520800076425,54.764228800078854,56.262889199890196,56.262889199890196,56.262889199890196,56.74762469995767,s,1,0.4824991999194026,None,,,N20,001,2025-04-08_10h37.12.526,416_EXPERIMENT_PSYCHOPY_AU2220019_AU2220225,2024.1.5,None,2025-04-08 10h37.30.614949 +0530,
surprise.jpg,s,4,0,24,1,56.76235039997846,,,,,,,,,,,,,,,,56.74818310001865,56.76235039997846,58.2614955001045,58.2614955001045,58.278389000101015,58.99448659992777,None,0,,,59.0109858000651,59.0109858000651,N20,001,2025-04-08_10h37.12.526,416_EXPERIMENT_PSYCHOPY_AU2220019_AU2220225,2024.1.5,None,2025-04-08 10h37.30.614949 +0530,
surprise_lower_blur.jpg,s,4,1,25,5,59.0109858000651,,,,,,,,,,,,,,,,58.994927899912,59.0109858000651,60.50892490008846,60.50892490008846,60.526448799995705,61.02620909991674,s,1,0.5104070999659598,None,,,N20,001,2025-04-08_10h37.12.526,416_EXPERIMENT_PSYCHOPY_AU2220019_AU2220225,2024.1.5,None,2025-04-08 10h37.30.614949 +0530,
fear.jpg,f,4,2,26,0,61.041218699887395,,,,,,,,,,,,,,,,61.026781199965626,61.041218699887395,62.54199100006372,62.54199100006372,62.54199100006372,63.20743539999239,f,1,0.6532321001868695,None,,,N20,001,2025-04-08_10h37.12.526,416_EXPERIMENT_PSYCHOPY_AU2220019_AU2220225,2024.1.5,None,2025-04-08 10h37.30.614949 +0530,
fear_lower_blur.jpg,f,4,3,27,3,63.222697499906644,,,,,,,,,,,,,,,,63.208000800106674,63.222697499906644,64.72127759992145,64.72127759992145,64.73829589993693,65.20539749995805,f,1,0.46926419995725155,None,,,N20,001,2025-04-08_10h37.12.526,416_EXPERIMENT_PSYCHOPY_AU2220019_AU2220225,2024.1.5,None,2025-04-08 10h37.30.614949 +0530,
surprise_upper_blur.jpg,s,4,4,28,4,65.22061290009879,,,,,,,,,,,,,,,,65.2059762000572,65.22061290009879,66.7199870001059,66.7199870001059,66.73571770009585,67.30312289996073,s,1,0.5809529002290219,None,,,N20,001,2025-04-08_10h37.12.526,416_EXPERIMENT_PSYCHOPY_AU2220019_AU2220225,2024.1.5,None,2025-04-08 10h37.30.614949 +0530,
fear_upper_blur.jpg,f,4,5,29,2,67.31927470001392,,,,,,,,,,,,,,,,67.30376900010742,67.31927470001392,68.81710259988904,68.81710259988904,68.83333400008269,69.40106469998136,f,1,0.5673787998966873,None,,,N20,001,2025-04-08_10h37.12.526,416_EXPERIMENT_PSYCHOPY_AU2220019_AU2220225,2024.1.5,None,2025-04-08 10h37.30.614949 +0530,
fear_lower_blur.jpg,f,5,0,30,3,69.4158193001058,,,,,,,,,,,,,,,,69.40191309992224,69.4158193001058,70.91556039988063,70.91556039988063,70.91556039988063,71.43187210010365,f,1,0.5025668998714536,None,,,N20,001,2025-04-08_10h37.12.526,416_EXPERIMENT_PSYCHOPY_AU2220019_AU2220225,2024.1.5,None,2025-04-08 10h37.30.614949 +0530,
surprise_lower_blur.jpg,s,5,1,31,5,71.44773199991323,,,,,,,,,,,,,,,,71.4326035999693,71.44773199991323,72.94691709987819,72.94691709987819,72.9628107000608,73.51393179991283,s,1,0.5653843998443335,None,,,N20,001,2025-04-08_10h37.12.526,416_EXPERIMENT_PSYCHOPY_AU2220019_AU2220225,2024.1.5,None,2025-04-08 10h37.30.614949 +0530,
surprise.jpg,s,5,2,32,1,73.5298423001077,,,,,,,,,,,,,,,,73.51450660009868,73.5298423001077,75.02797110006213,75.02797110006213,75.04446969996206,75.51140840002336,s,1,0.4742584000341594,None,,,N20,001,2025-04-08_10h37.12.526,416_EXPERIMENT_PSYCHOPY_AU2220019_AU2220225,2024.1.5,None,2025-04-08 10h37.30.614949 +0530,
fear.jpg,f,5,3,33,0,75.52767209988087,,,,,,,,,,,,,,,,75.51198330009356,75.52767209988087,77.02648349991068,77.02648349991068,77.02648349991068,77.64311440009624,f,1,0.6048820000141859,None,,,N20,001,2025-04-08_10h37.12.526,416_EXPERIMENT_PSYCHOPY_AU2220019_AU2220225,2024.1.5,None,2025-04-08 10h37.30.614949 +0530,
surprise_upper_blur.jpg,s,5,4,34,4,77.65896270005032,,,,,,,,,,,,,,,,77.64366500009783,77.65896270005032,79.15727060008794,79.15727060008794,79.17423349991441,79.70806140010245,s,1,0.5444572002161294,None,,,N20,001,2025-04-08_10h37.12.526,416_EXPERIMENT_PSYCHOPY_AU2220019_AU2220225,2024.1.5,None,2025-04-08 10h37.30.614949 +0530,
fear_upper_blur.jpg,f,5,5,35,2,79.72269540000707,,,,,,,,,,,,,,,,79.70869840006344,79.72269540000707,81.22235350008123,81.22235350008123,81.23869820008986,81.82260930002667,s,0,0.5988288999069482,None,,,N20,001,2025-04-08_10h37.12.526,416_EXPERIMENT_PSYCHOPY_AU2220019_AU2220225,2024.1.5,None,2025-04-08 10h37.30.614949 +0530,
surprise_upper_blur.jpg,s,6,0,36,4,81.83785180002451,,,,,,,,,,,,,,,,81.82325439993292,81.83785180002451,83.33591730007902,83.33591730007902,83.352400300093,83.82053279993124,f,0,0.47751959995366633,None,,,N20,001,2025-04-08_10h37.12.526,416_EXPERIMENT_PSYCHOPY_AU2220019_AU2220225,2024.1.5,None,2025-04-08 10h37.30.614949 +0530,
fear_lower_blur.jpg,f,6,1,37,3,83.83597990009002,,,,,,,,,,,,,,,,83.82121330010705,83.83597990009002,85.33361169998534,85.33361169998534,85.35131810000166,86.06771959993057,None,0,,,86.0837836000137,86.0837836000137,N20,001,2025-04-08_10h37.12.526,416_EXPERIMENT_PSYCHOPY_AU2220019_AU2220225,2024.1.5,None,2025-04-08 10h37.30.614949 +0530,
fear_upper_blur.jpg,f,6,2,38,2,86.0837836000137,,,,,,,,,,,,,,,,86.06831469992176,86.0837836000137,87.58176609990187,87.58176609990187,87.59871799987741,88.19968260009773,f,1,0.6083402000367641,None,,,N20,001,2025-04-08_10h37.12.526,416_EXPERIMENT_PSYCHOPY_AU2220019_AU2220225,2024.1.5,None,2025-04-08 10h37.30.614949 +0530,
surprise_lower_blur.jpg,s,6,3,39,5,88.21569960005581,,,,,,,,,,,,,,,,88.20063990005292,88.21569960005581,89.7129860999994,89.7129860999994,89.72996899997815,90.3468603999354,s,1,0.6219710998702794,None,,,N20,001,2025-04-08_10h37.12.526,416_EXPERIMENT_PSYCHOPY_AU2220019_AU2220225,2024.1.5,None,2025-04-08 10h37.30.614949 +0530,
fear.jpg,f,6,4,40,0,90.36320860008709,,,,,,,,,,,,,,,,90.34770680009387,90.36320860008709,91.8618870000355,91.8618870000355,91.8618870000355,92.37876180000603,f,1,0.5131967000197619,None,,,N20,001,2025-04-08_10h37.12.526,416_EXPERIMENT_PSYCHOPY_AU2220019_AU2220225,2024.1.5,None,2025-04-08 10h37.30.614949 +0530,
surprise.jpg,s,6,5,41,1,92.39467810001224,,,,,,,,,,,,,,,,92.37934229988605,92.39467810001224,93.89262870000675,93.89262870000675,93.91015230002813,94.37691079988144,f,0,0.4754276000894606,None,,,N20,001,2025-04-08_10h37.12.526,416_EXPERIMENT_PSYCHOPY_AU2220019_AU2220225,2024.1.5,None,2025-04-08 10h37.30.614949 +0530,
fear_lower_blur.jpg,f,7,0,42,3,94.3921968000941,,,,,,,,,,,,,,,,94.37753969989717,94.3921968000941,95.89062379999086,95.89062379999086,95.9069932999555,96.40800220007077,f,1,0.5119745000265539,None,,,N20,001,2025-04-08_10h37.12.526,416_EXPERIMENT_PSYCHOPY_AU2220019_AU2220225,2024.1.5,None,2025-04-08 10h37.30.614949 +0530,
surprise_upper_blur.jpg,s,7,1,43,4,96.42284090002067,,,,,,,,,,,,,,,,96.40857569989748,96.42284090002067,97.92184219998308,97.92184219998308,97.9391059000045,98.57197949988768,s,1,0.6417193000670522,None,,,N20,001,2025-04-08_10h37.12.526,416_EXPERIMENT_PSYCHOPY_AU2220019_AU2220225,2024.1.5,None,2025-04-08 10h37.30.614949 +0530,
fear.jpg,f,7,2,44,0,98.58770040003583,,,,,,,,,,,,,,,,98.5725553999655,98.58770040003583,100.0868454000447,100.0868454000447,100.0868454000447,100.6534210999962,f,1,0.5547994999215007,None,,,N20,001,2025-04-08_10h37.12.526,416_EXPERIMENT_PSYCHOPY_AU2220019_AU2220225,2024.1.5,None,2025-04-08 10h37.30.614949 +0530,
surprise.jpg,s,7,3,45,1,100.66990979993716,,,,,,,,,,,,,,,,100.65405760006979,100.66990979993716,102.16797919990495,102.16797919990495,102.18449419992976,102.7182010000106,s,1,0.5442208000458777,None,,,N20,001,2025-04-08_10h37.12.526,416_EXPERIMENT_PSYCHOPY_AU2220019_AU2220225,2024.1.5,None,2025-04-08 10h37.30.614949 +0530,
surprise_lower_blur.jpg,s,7,4,46,5,102.73424970009364,,,,,,,,,,,,,,,,102.71913670003414,102.73424970009364,104.23248389991932,104.23248389991932,104.24925939994864,104.7824047000613,s,1,0.5353854999411851,None,,,N20,001,2025-04-08_10h37.12.526,416_EXPERIMENT_PSYCHOPY_AU2220019_AU2220225,2024.1.5,None,2025-04-08 10h37.30.614949 +0530,
fear_upper_blur.jpg,f,7,5,47,2,104.79854699992575,,,,,,,,,,,,,,,,104.78299780003726,104.79854699992575,106.29637919995002,106.29637919995002,106.31328039988875,106.81381079996936,f,1,0.5157101999502629,None,,,N20,001,2025-04-08_10h37.12.526,416_EXPERIMENT_PSYCHOPY_AU2220019_AU2220225,2024.1.5,None,2025-04-08 10h37.30.614949 +0530,
fear_lower_blur.jpg,f,8,0,48,3,106.82951879990287,,,,,,,,,,,,,,,,106.81441710004583,106.82951879990287,108.32848390005529,108.32848390005529,108.34520650003105,108.89512780006044,f,1,0.5656141999643296,None,,,N20,001,2025-04-08_10h37.12.526,416_EXPERIMENT_PSYCHOPY_AU2220019_AU2220225,2024.1.5,None,2025-04-08 10h37.30.614949 +0530,
surprise_lower_blur.jpg,s,8,1,49,5,108.91048699989915,,,,,,,,,,,,,,,,108.89571060007438,108.91048699989915,110.41019179997966,110.41019179997966,110.4264674000442,111.14306910010055,s,1,0.7293974000494927,None,,,N20,001,2025-04-08_10h37.12.526,416_EXPERIMENT_PSYCHOPY_AU2220019_AU2220225,2024.1.5,None,2025-04-08 10h37.30.614949 +0530,
fear.jpg,f,8,2,50,0,111.15824340004474,,,,,,,,,,,,,,,,111.14372200006619,111.15824340004474,112.65678950003348,112.65678950003348,112.67362249991857,113.14082790003158,f,1,0.4763978999108076,None,,,N20,001,2025-04-08_10h37.12.526,416_EXPERIMENT_PSYCHOPY_AU2220019_AU2220225,2024.1.5,None,2025-04-08 10h37.30.614949 +0530,
surprise_upper_blur.jpg,s,8,3,51,4,113.15657479991205,,,,,,,,,,,,,,,,113.14139260002412,113.15657479991205,114.65585289988667,114.65585289988667,114.67170380009338,115.17296579992399,f,0,0.5087355000432581,None,,,N20,001,2025-04-08_10h37.12.526,416_EXPERIMENT_PSYCHOPY_AU2220019_AU2220225,2024.1.5,None,2025-04-08 10h37.30.614949 +0530,
surprise.jpg,s,8,4,52,1,115.1877061999403,,,,,,,,,,,,,,,,115.17358170007356,115.1877061999403,116.68697239994071,116.68697239994071,116.68697239994071,117.17074079997838,f,0,0.46619569999165833,None,,,N20,001,2025-04-08_10h37.12.526,416_EXPERIMENT_PSYCHOPY_AU2220019_AU2220225,2024.1.5,None,2025-04-08 10h37.30.614949 +0530,
fear_upper_blur.jpg,f,8,5,53,2,117.18666530004703,,,,,,,,,,,,,,,,117.17130000004545,117.18666530004703,118.68471050006337,118.68471050006337,118.70175840007141,119.31890349998139,f,1,0.6161851000506431,None,,,N20,001,2025-04-08_10h37.12.526,416_EXPERIMENT_PSYCHOPY_AU2220019_AU2220225,2024.1.5,None,2025-04-08 10h37.30.614949 +0530,
surprise.jpg,s,9,0,54,1,119.33321100007743,,,,,,,,,,,,,,,,119.31953449989669,119.33321100007743,120.83192969998345,120.83192969998345,120.83192969998345,121.31645460007712,s,1,0.4680023000109941,None,,,N20,001,2025-04-08_10h37.12.526,416_EXPERIMENT_PSYCHOPY_AU2220019_AU2220225,2024.1.5,None,2025-04-08 10h37.30.614949 +0530,
surprise_lower_blur.jpg,s,9,1,55,5,121.33176250010729,,,,,,,,,,,,,,,,121.31743939989246,121.33176250010729,122.83041730010882,122.83041730010882,122.84719819994643,123.31355180009268,s,1,0.4711211998946965,None,,,N20,001,2025-04-08_10h37.12.526,416_EXPERIMENT_PSYCHOPY_AU2220019_AU2220225,2024.1.5,None,2025-04-08 10h37.30.614949 +0530,
surprise_upper_blur.jpg,s,9,2,56,4,123.32970319991,,,,,,,,,,,,,,,,123.31413340009749,123.32970319991,124.829039900098,124.829039900098,124.84548919997178,125.32951959990896,f,0,0.49098889995366335,None,,,N20,001,2025-04-08_10h37.12.526,416_EXPERIMENT_PSYCHOPY_AU2220019_AU2220225,2024.1.5,None,2025-04-08 10h37.30.614949 +0530,
fear_lower_blur.jpg,f,9,3,57,3,125.3443086000625,,,,,,,,,,,,,,,,125.3300820000004,125.3443086000625,126.84461329993792,126.84461329993792,126.84461329993792,127.42760029993951,f,1,0.5722322000656277,None,,,N20,001,2025-04-08_10h37.12.526,416_EXPERIMENT_PSYCHOPY_AU2220019_AU2220225,2024.1.5,None,2025-04-08 10h37.30.614949 +0530,
fear_upper_blur.jpg,f,9,4,58,2,127.44195630005561,,,,,,,,,,,,,,,,127.42835960001685,127.44195630005561,128.94094190001488,128.94094190001488,128.94094190001488,129.4583650000859,f,1,0.5119569001253694,None,,,N20,001,2025-04-08_10h37.12.526,416_EXPERIMENT_PSYCHOPY_AU2220019_AU2220225,2024.1.5,None,2025-04-08 10h37.30.614949 +0530,
fear.jpg,f,9,5,59,0,129.47396730002947,,,,,,,,,,,,,,,,129.4589501998853,129.47396730002947,130.9729112999048,130.9729112999048,130.9729112999048,131.50771520007402,f,1,0.5176014001481235,None,,,N20,001,2025-04-08_10h37.12.526,416_EXPERIMENT_PSYCHOPY_AU2220019_AU2220225,2024.1.5,None,2025-04-08 10h37.30.614949 +0530,
fear_lower_blur.jpg,f,10,0,60,3,131.52318220003508,,,,,,,,,,,,,,,,131.5094222999178,131.52318220003508,133.02049389993772,133.02049389993772,133.0368570999708,133.7376244000625,f,1,0.7153247001115233,None,,,N20,001,2025-04-08_10h37.12.526,416_EXPERIMENT_PSYCHOPY_AU2220019_AU2220225,2024.1.5,None,2025-04-08 10h37.30.614949 +0530,
fear.jpg,f,10,1,61,0,133.75298859993927,,,,,,,,,,,,,,,,133.73828790010884,133.75298859993927,135.25241580000147,135.25241580000147,135.25241580000147,135.76929259998724,f,1,0.5027469999622554,None,,,N20,001,2025-04-08_10h37.12.526,416_EXPERIMENT_PSYCHOPY_AU2220019_AU2220225,2024.1.5,None,2025-04-08 10h37.30.614949 +0530,
fear_upper_blur.jpg,f,10,2,62,2,135.7849127999507,,,,,,,,,,,,,,,,135.77022220008075,135.7849127999507,137.2833122999873,137.2833122999873,137.3003259000834,137.7337799000088,f,1,0.44850139995105565,None,,,N20,001,2025-04-08_10h37.12.526,416_EXPERIMENT_PSYCHOPY_AU2220019_AU2220225,2024.1.5,None,2025-04-08 10h37.30.614949 +0530,
surprise.jpg,s,10,3,63,1,137.75000649993308,,,,,,,,,,,,,,,,137.73440889990889,137.75000649993308,139.2484712000005,139.2484712000005,139.2643271998968,139.7990280999802,s,1,0.5457919000182301,None,,,N20,001,2025-04-08_10h37.12.526,416_EXPERIMENT_PSYCHOPY_AU2220019_AU2220225,2024.1.5,None,2025-04-08 10h37.30.614949 +0530,
surprise_lower_blur.jpg,s,10,4,64,5,139.81368059990928,,,,,,,,,,,,,,,,139.79958530003205,139.81368059990928,141.3125674999319,141.3125674999319,141.3125674999319,141.74705579993315,s,1,0.423648800002411,None,,,N20,001,2025-04-08_10h37.12.526,416_EXPERIMENT_PSYCHOPY_AU2220019_AU2220225,2024.1.5,None,2025-04-08 10h37.30.614949 +0530,
surprise_upper_blur.jpg,s,10,5,65,4,141.76284179999493,,,,,,,,,,,,,,,,141.74763430003077,141.76284179999493,143.26104820007458,143.26104820007458,143.27743260003626,143.66105909994803,s,1,0.388982699951157,None,,,N20,001,2025-04-08_10h37.12.526,416_EXPERIMENT_PSYCHOPY_AU2220019_AU2220225,2024.1.5,None,2025-04-08 10h37.30.614949 +0530,
fear_upper_blur.jpg,f,11,0,66,2,143.67699120007455,,,,,,,,,,,,,,,,143.66159250005148,143.67699120007455,145.17576640006155,145.17576640006155,145.17576640006155,145.70998970000073,s,0,0.5276001999154687,None,,,N20,001,2025-04-08_10h37.12.526,416_EXPERIMENT_PSYCHOPY_AU2220019_AU2220225,2024.1.5,None,2025-04-08 10h37.30.614949 +0530,
surprise.jpg,s,11,1,67,1,145.72481289994903,,,,,,,,,,,,,,,,145.71060879994184,145.72481289994903,147.22388279996812,147.22388279996812,147.22388279996812,147.95722960005514,None,0,,,147.97175149992108,147.97175149992108,N20,001,2025-04-08_10h37.12.526,416_EXPERIMENT_PSYCHOPY_AU2220019_AU2220225,2024.1.5,None,2025-04-08 10h37.30.614949 +0530,
surprise_lower_blur.jpg,s,11,2,68,5,147.97175149992108,,,,,,,,,,,,,,,,147.95801499998197,147.97175149992108,149.47095420002006,149.47095420002006,149.47095420002006,150.20479159988463,None,0,,,150.22038109996356,150.22038109996356,N20,001,2025-04-08_10h37.12.526,416_EXPERIMENT_PSYCHOPY_AU2220019_AU2220225,2024.1.5,None,2025-04-08 10h37.30.614949 +0530,
fear.jpg,f,11,3,69,0,150.22038109996356,,,,,,,,,,,,,,,,150.20547119993716,150.22038109996356,151.71897189994343,151.71897189994343,151.7359068999067,152.16974889999256,f,1,0.4363167998380959,None,,,N20,001,2025-04-08_10h37.12.526,416_EXPERIMENT_PSYCHOPY_AU2220019_AU2220225,2024.1.5,None,2025-04-08 10h37.30.614949 +0530,
surprise_upper_blur.jpg,s,11,4,70,4,152.18425239995122,,,,,,,,,,,,,,,,152.1704313000664,152.18425239995122,153.6839278000407,153.6839278000407,153.6839278000407,154.18381300009787,s,1,0.4936197001952678,None,,,N20,001,2025-04-08_10h37.12.526,416_EXPERIMENT_PSYCHOPY_AU2220019_AU2220225,2024.1.5,None,2025-04-08 10h37.30.614949 +0530,
fear_lower_blur.jpg,f,11,5,71,3,154.19948050007224,,,,,,,,,,,,,,,,154.18443419993855,154.19948050007224,155.69862459995784,155.69862459995784,155.69862459995784,156.26842639991082,f,1,0.5572240999899805,None,,,N20,001,2025-04-08_10h37.12.526,416_EXPERIMENT_PSYCHOPY_AU2220019_AU2220225,2024.1.5,None,2025-04-08 10h37.30.614949 +0530,
surprise.jpg,s,12,0,72,1,156.28669449989684,,,,,,,,,,,,,,,,156.27016730001196,156.28669449989684,157.7808759000618,157.7808759000618,157.79650510009378,158.26347719994374,s,1,0.480516699841246,None,,,N20,001,2025-04-08_10h37.12.526,416_EXPERIMENT_PSYCHOPY_AU2220019_AU2220225,2024.1.5,None,2025-04-08 10h37.30.614949 +0530,
surprise_lower_blur.jpg,s,12,1,73,5,158.2788607000839,,,,,,,,,,,,,,,,158.26443159999326,158.2788607000839,159.7787454999052,159.7787454999052,159.7787454999052,160.3450879000593,s,1,0.550133999902755,None,,,N20,001,2025-04-08_10h37.12.526,416_EXPERIMENT_PSYCHOPY_AU2220019_AU2220225,2024.1.5,None,2025-04-08 10h37.30.614949 +0530,
fear_upper_blur.jpg,f,12,2,74,2,160.36174220009707,,,,,,,,,,,,,,,,160.34577900008298,160.36174220009707,161.85944129992276,161.85944129992276,161.87634860002436,162.42710549989715,f,1,0.5645880999509245,None,,,N20,001,2025-04-08_10h37.12.526,416_EXPERIMENT_PSYCHOPY_AU2220019_AU2220225,2024.1.5,None,2025-04-08 10h37.30.614949 +0530,
fear_lower_blur.jpg,f,12,3,75,3,162.44190620002337,,,,,,,,,,,,,,,,162.42771949991584,162.44190620002337,163.94031179999,163.94031179999,163.95758690009825,164.40749019989744,f,1,0.4571080000605434,None,,,N20,001,2025-04-08_10h37.12.526,416_EXPERIMENT_PSYCHOPY_AU2220019_AU2220225,2024.1.5,None,2025-04-08 10h37.30.614949 +0530,
surprise_upper_blur.jpg,s,12,4,76,4,164.42308459989727,,,,,,,,,,,,,,,,164.40804030001163,164.42308459989727,165.92239079996943,165.92239079996943,165.92239079996943,166.43975679995492,s,1,0.5128138000145555,None,,,N20,001,2025-04-08_10h37.12.526,416_EXPERIMENT_PSYCHOPY_AU2220019_AU2220225,2024.1.5,None,2025-04-08 10h37.30.614949 +0530,
fear.jpg,f,12,5,77,0,166.45423849998042,,,,,,,,,,,,,,,,166.4403685000725,166.45423849998042,167.95283149997704,167.95283149997704,167.96922060009092,168.40423460002057,f,1,0.4432184000033885,None,,,N20,001,2025-04-08_10h37.12.526,416_EXPERIMENT_PSYCHOPY_AU2220019_AU2220225,2024.1.5,None,2025-04-08 10h37.30.614949 +0530,
surprise_upper_blur.jpg,s,13,0,78,4,168.41890130005777,,,,,,,,,,,,,,,,168.40518700005487,168.41890130005777,169.91868219990283,169.91868219990283,169.93508389987983,170.43609309988096,f,0,0.5064979998860508,None,,,N20,001,2025-04-08_10h37.12.526,416_EXPERIMENT_PSYCHOPY_AU2220019_AU2220225,2024.1.5,None,2025-04-08 10h37.30.614949 +0530,
fear_lower_blur.jpg,f,13,1,79,3,170.45024339994416,,,,,,,,,,,,,,,,170.436777099967,170.45024339994416,171.9488023999147,171.9488023999147,171.9654516999144,172.64955360000022,f,1,0.6862361000385135,None,,,N20,001,2025-04-08_10h37.12.526,416_EXPERIMENT_PSYCHOPY_AU2220019_AU2220225,2024.1.5,None,2025-04-08 10h37.30.614949 +0530,
surprise.jpg,s,13,2,80,1,172.66524840006605,,,,,,,,,,,,,,,,172.65012630005367,172.66524840006605,174.1634237000253,174.1634237000253,174.1804967999924,174.66438339999877,s,1,0.49490900011733174,None,,,N20,001,2025-04-08_10h37.12.526,416_EXPERIMENT_PSYCHOPY_AU2220019_AU2220225,2024.1.5,None,2025-04-08 10h37.30.614949 +0530,
fear.jpg,f,13,3,81,0,174.68451680010185,,,,,,,,,,,,,,,,174.66504270001315,174.68451680010185,176.17790200002491,176.17790200002491,176.194882000098,176.6784196998924,f,1,0.4990222998894751,None,,,N20,001,2025-04-08_10h37.12.526,416_EXPERIMENT_PSYCHOPY_AU2220019_AU2220225,2024.1.5,None,2025-04-08 10h37.30.614949 +0530,
fear_upper_blur.jpg,f,13,4,82,2,176.69418039987795,,,,,,,,,,,,,,,,176.67907120008022,176.69418039987795,178.19303199998103,178.19303199998103,178.19303199998103,178.67779599991627,s,0,0.474406799999997,None,,,N20,001,2025-04-08_10h37.12.526,416_EXPERIMENT_PSYCHOPY_AU2220019_AU2220225,2024.1.5,None,2025-04-08 10h37.30.614949 +0530,
surprise_lower_blur.jpg,s,13,5,83,5,178.69264489994384,,,,,,,,,,,,,,,,178.67838860000484,178.69264489994384,180.19129349989817,180.19129349989817,180.19129349989817,180.45858370000497,f,0,0.2580143001396209,None,,,N20,001,2025-04-08_10h37.12.526,416_EXPERIMENT_PSYCHOPY_AU2220019_AU2220225,2024.1.5,None,2025-04-08 10h37.30.614949 +0530,
surprise_upper_blur.jpg,s,14,0,84,4,180.47370119998232,,,,,,,,,,,,,,,,180.4591320999898,180.47370119998232,181.97295369999483,181.97295369999483,181.97295369999483,182.2407176999841,f,0,0.26629089983180165,None,,,N20,001,2025-04-08_10h37.12.526,416_EXPERIMENT_PSYCHOPY_AU2220019_AU2220225,2024.1.5,None,2025-04-08 10h37.30.614949 +0530,
fear.jpg,f,14,1,85,0,182.25568079994991,,,,,,,,,,,,,,,,182.24130830005743,182.25568079994991,183.75365810003132,183.75365810003132,183.77065120008774,184.287624000106,f,1,0.5264548999257386,None,,,N20,001,2025-04-08_10h37.12.526,416_EXPERIMENT_PSYCHOPY_AU2220019_AU2220225,2024.1.5,None,2025-04-08 10h37.30.614949 +0530,
surprise_lower_blur.jpg,s,14,2,86,5,184.30331950006075,,,,,,,,,,,,,,,,184.28822960006073,184.30331950006075,185.8018793000374,185.8018793000374,185.8018793000374,186.30311889993027,s,1,0.4949437000323087,None,,,N20,001,2025-04-08_10h37.12.526,416_EXPERIMENT_PSYCHOPY_AU2220019_AU2220225,2024.1.5,None,2025-04-08 10h37.30.614949 +0530,
fear_upper_blur.jpg,f,14,3,87,2,186.31911480007693,,,,,,,,,,,,,,,,186.30379040003754,186.31911480007693,187.8171290999744,187.8171290999744,187.8337030999828,188.5654879999347,None,0,,,,,N20,001,2025-04-08_10h37.12.526,416_EXPERIMENT_PSYCHOPY_AU2220019_AU2220225,2024.1.5,None,2025-04-08 10h37.30.614949 +0530,
surprise.jpg,s,14,4,88,1,188.58236150001176,,,,,,,,,,,,,,,,188.56604550010525,188.58236150001176,190.0653848000802,190.0653848000802,190.0813313999679,190.54918679990806,s,1,0.48187420004978776,None,,,N20,001,2025-04-08_10h37.12.526,416_EXPERIMENT_PSYCHOPY_AU2220019_AU2220225,2024.1.5,None,2025-04-08 10h37.30.614949 +0530,
fear_lower_blur.jpg,f,14,5,89,3,190.5644863001071,,,,,,,,,,,,,,,,190.54987900005654,190.5644863001071,192.06286499998532,192.06286499998532,192.0793230999261,192.41324419993907,f,1,0.3467812999151647,None,,,N20,001,2025-04-08_10h37.12.526,416_EXPERIMENT_PSYCHOPY_AU2220019_AU2220225,2024.1.5,None,2025-04-08 10h37.30.614949 +0530,
fear.jpg,f,15,0,90,0,192.4284500000067,,,,,,,,,,,,,,,,192.41416239994578,192.4284500000067,193.9274605999235,193.9274605999235,193.94348539994098,194.1451830000151,f,1,0.207231700187549,None,,,N20,001,2025-04-08_10h37.12.526,416_EXPERIMENT_PSYCHOPY_AU2220019_AU2220225,2024.1.5,None,2025-04-08 10h37.30.614949 +0530,
surprise_upper_blur.jpg,s,15,1,91,4,194.16064319992438,,,,,,,,,,,,,,,,194.14618130004965,194.16064319992438,195.6599075999111,195.6599075999111,195.6599075999111,195.91034649987705,s,1,0.23602079995907843,None,,,N20,001,2025-04-08_10h37.12.526,416_EXPERIMENT_PSYCHOPY_AU2220019_AU2220225,2024.1.5,None,2025-04-08 10h37.30.614949 +0530,
fear_lower_blur.jpg,f,15,2,92,3,195.92533720005304,,,,,,,,,,,,,,,,195.91095679998398,195.92533720005304,197.4240421000868,197.4240421000868,197.4240421000868,197.64165390003473,f,1,0.20393000007607043,None,,,N20,001,2025-04-08_10h37.12.526,416_EXPERIMENT_PSYCHOPY_AU2220019_AU2220225,2024.1.5,None,2025-04-08 10h37.30.614949 +0530,
surprise.jpg,s,15,3,93,1,197.6567861000076,,,,,,,,,,,,,,,,197.64219740009867,197.6567861000076,199.15586209995672,199.15586209995672,199.15586209995672,199.6225272999145,s,1,0.45052439998835325,None,,,N20,001,2025-04-08_10h37.12.526,416_EXPERIMENT_PSYCHOPY_AU2220019_AU2220225,2024.1.5,None,2025-04-08 10h37.30.614949 +0530,
fear_upper_blur.jpg,f,15,4,94,2,199.63913260004483,,,,,,,,,,,,,,,,199.62312979996204,199.63913260004483,201.13696240005083,201.13696240005083,201.15384420007467,201.8545538999606,f,1,0.7046083000022918,None,,,N20,001,2025-04-08_10h37.12.526,416_EXPERIMENT_PSYCHOPY_AU2220019_AU2220225,2024.1.5,None,2025-04-08 10h37.30.614949 +0530,
surprise_lower_blur.jpg,s,15,5,95,5,201.86954379989766,,,,,,,,,,,,,,,,201.8552645999007,201.86954379989766,203.36839980003424,203.36839980003424,203.36839980003424,203.81897470005788,s,1,0.4388542000669986,None,,,N20,001,2025-04-08_10h37.12.526,416_EXPERIMENT_PSYCHOPY_AU2220019_AU2220225,2024.1.5,None,2025-04-08 10h37.30.614949 +0530,
fear_lower_blur.jpg,f,16,0,96,3,203.83426839997992,,,,,,,,,,,,,,,,203.81963560008444,203.83426839997992,205.3335051999893,205.3335051999893,205.3335051999893,205.75020190002397,f,1,0.40128910006023943,None,,,N20,001,2025-04-08_10h37.12.526,416_EXPERIMENT_PSYCHOPY_AU2220019_AU2220225,2024.1.5,None,2025-04-08 10h37.30.614949 +0530,
surprise.jpg,s,16,1,97,1,205.7659364999272,,,,,,,,,,,,,,,,205.75080389995128,205.7659364999272,207.26422469993122,207.26422469993122,207.28115650010295,207.64910429995507,s,1,0.38236310007050633,None,,,N20,001,2025-04-08_10h37.12.526,416_EXPERIMENT_PSYCHOPY_AU2220019_AU2220225,2024.1.5,None,2025-04-08 10h37.30.614949 +0530,
fear_upper_blur.jpg,f,16,2,98,2,207.6638426000718,,,,,,,,,,,,,,,,207.64988909987733,207.6638426000718,209.16233199997805,209.16233199997805,209.16233199997805,209.46316879987717,f,1,0.29498709994368255,None,,,N20,001,2025-04-08_10h37.12.526,416_EXPERIMENT_PSYCHOPY_AU2220019_AU2220225,2024.1.5,None,2025-04-08 10h37.30.614949 +0530,
surprise_lower_blur.jpg,s,16,3,99,5,209.47818639990874,,,,,,,,,,,,,,,,209.46371989999898,209.47818639990874,210.97740369988605,210.97740369988605,210.97740369988605,211.17892370000482,s,1,0.19178009987808764,None,,,N20,001,2025-04-08_10h37.12.526,416_EXPERIMENT_PSYCHOPY_AU2220019_AU2220225,2024.1.5,None,2025-04-08 10h37.30.614949 +0530,
surprise_upper_blur.jpg,s,16,4,100,4,211.19429849996231,,,,,,,,,,,,,,,,211.17955620004795,211.19429849996231,212.69256779993884,212.69256779993884,212.70960290008225,212.92613529996015,f,0,0.21748939994722605,None,,,N20,001,2025-04-08_10h37.12.526,416_EXPERIMENT_PSYCHOPY_AU2220019_AU2220225,2024.1.5,None,2025-04-08 10h37.30.614949 +0530,
fear.jpg,f,16,5,101,0,212.94178169989027,,,,,,,,,,,,,,,,212.92674680007622,212.94178169989027,214.44065249990672,214.44065249990672,214.44065249990672,214.72524329996668,s,0,0.27123999991454184,None,,,N20,001,2025-04-08_10h37.12.526,416_EXPERIMENT_PSYCHOPY_AU2220019_AU2220225,2024.1.5,None,2025-04-08 10h37.30.614949 +0530,
fear.jpg,f,17,0,102,0,214.74067669990472,,,,,,,,,,,,,,,,214.725977800088,214.74067669990472,216.23958089994267,216.23958089994267,216.23958089994267,216.5568669999484,s,0,0.3161245998926461,None,,,N20,001,2025-04-08_10h37.12.526,416_EXPERIMENT_PSYCHOPY_AU2220019_AU2220225,2024.1.5,None,2025-04-08 10h37.30.614949 +0530,
surprise.jpg,s,17,1,103,1,216.57144280010834,,,,,,,,,,,,,,,,216.557427899912,216.57144280010834,218.07027929998003,218.07027929998003,218.08751400001347,218.53835140005685,s,1,0.4648770000785589,None,,,N20,001,2025-04-08_10h37.12.526,416_EXPERIMENT_PSYCHOPY_AU2220019_AU2220225,2024.1.5,None,2025-04-08 10h37.30.614949 +0530,
surprise_lower_blur.jpg,s,17,2,104,5,218.5532601000741,,,,,,,,,,,,,,,,218.5388972000219,218.5532601000741,220.05200230004266,220.05200230004266,220.06835559988394,220.3524430000689,f,0,0.2897093000356108,None,,,N20,001,2025-04-08_10h37.12.526,416_EXPERIMENT_PSYCHOPY_AU2220019_AU2220225,2024.1.5,None,2025-04-08 10h37.30.614949 +0530,
fear_lower_blur.jpg,f,17,3,105,3,220.3741897,,,,,,,,,,,,,,,,220.35302289994434,220.3741897,221.86719050002284,221.86719050002284,221.88338540005498,222.3003352000378,f,1,0.42536820005625486,None,,,N20,001,2025-04-08_10h37.12.526,416_EXPERIMENT_PSYCHOPY_AU2220019_AU2220225,2024.1.5,None,2025-04-08 10h37.30.614949 +0530,
fear_upper_blur.jpg,f,17,4,106,2,222.31619919999503,,,,,,,,,,,,,,,,222.3009484000504,222.31619919999503,223.81560839992017,223.81560839992017,223.83194909989834,224.4820524000097,s,0,0.6575011999811977,None,,,N20,001,2025-04-08_10h37.12.526,416_EXPERIMENT_PSYCHOPY_AU2220019_AU2220225,2024.1.5,None,2025-04-08 10h37.30.614949 +0530,
surprise_upper_blur.jpg,s,17,5,107,4,224.49774189991876,,,,,,,,,,,,,,,,224.48261460009962,224.49774189991876,225.9967724001035,225.9967724001035,226.01321449992247,226.53017439995892,s,1,0.5254762000404298,None,,,N20,001,2025-04-08_10h37.12.526,416_EXPERIMENT_PSYCHOPY_AU2220019_AU2220225,2024.1.5,None,2025-04-08 10h37.30.614949 +0530,
fear_upper_blur.jpg,f,18,0,108,2,226.5456550999079,,,,,,,,,,,,,,,,226.53074180008844,226.5456550999079,228.04396499996074,228.04396499996074,228.0607127000112,228.67759649991058,f,1,0.6181653998792171,None,,,N20,001,2025-04-08_10h37.12.526,416_EXPERIMENT_PSYCHOPY_AU2220019_AU2220225,2024.1.5,None,2025-04-08 10h37.30.614949 +0530,
fear_lower_blur.jpg,f,18,1,109,3,228.6932157999836,,,,,,,,,,,,,,,,228.67814329988323,228.6932157999836,230.19259459991008,230.19259459991008,230.19259459991008,230.7094862998929,f,1,0.5044034000020474,None,,,N20,001,2025-04-08_10h37.12.526,416_EXPERIMENT_PSYCHOPY_AU2220019_AU2220225,2024.1.5,None,2025-04-08 10h37.30.614949 +0530,
fear.jpg,f,18,2,110,0,230.72505200002342,,,,,,,,,,,,,,,,230.71017770003527,230.72505200002342,232.22297560004517,232.22297560004517,232.23947590007447,232.67397470003925,f,1,0.44577549980022013,None,,,N20,001,2025-04-08_10h37.12.526,416_EXPERIMENT_PSYCHOPY_AU2220019_AU2220225,2024.1.5,None,2025-04-08 10h37.30.614949 +0530,
surprise_lower_blur.jpg,s,18,3,111,5,232.68928609997965,,,,,,,,,,,,,,,,232.6745392999146,232.68928609997965,234.18829079996794,234.18829079996794,234.20523459999822,234.70583069999702,s,1,0.5042280000634491,None,,,N20,001,2025-04-08_10h37.12.526,416_EXPERIMENT_PSYCHOPY_AU2220019_AU2220225,2024.1.5,None,2025-04-08 10h37.30.614949 +0530,
surprise_upper_blur.jpg,s,18,4,112,4,234.72044890001416,,,,,,,,,,,,,,,,234.70641819993034,234.72044890001416,236.21922510000877,236.21922510000877,236.23589550005272,236.73720790003426,s,1,0.5169612001627684,None,,,N20,001,2025-04-08_10h37.12.526,416_EXPERIMENT_PSYCHOPY_AU2220019_AU2220225,2024.1.5,None,2025-04-08 10h37.30.614949 +0530,
surprise.jpg,s,18,5,113,1,236.7520482998807,,,,,,,,,,,,,,,,236.7377923000604,236.7520482998807,238.25107780005783,238.25107780005783,238.25107780005783,238.65257459995337,s,1,0.3883646000176668,None,,,N20,001,2025-04-08_10h37.12.526,416_EXPERIMENT_PSYCHOPY_AU2220019_AU2220225,2024.1.5,None,2025-04-08 10h37.30.614949 +0530,
fear_upper_blur.jpg,f,19,0,114,2,238.66666399990208,,,,,,,,,,,,,,,,238.65353729994968,238.66666399990208,240.16603600000963,240.16603600000963,240.1824753000401,240.73291120002978,f,1,0.5632317001000047,None,,,N20,001,2025-04-08_10h37.12.526,416_EXPERIMENT_PSYCHOPY_AU2220019_AU2220225,2024.1.5,None,2025-04-08 10h37.30.614949 +0530,
surprise_upper_blur.jpg,s,19,1,115,4,240.7480440000072,,,,,,,,,,,,,,,,240.73348989989609,240.7480440000072,242.2474662999157,242.2474662999157,242.2474662999157,242.7802548999898,s,1,0.527393399970606,None,,,N20,001,2025-04-08_10h37.12.526,416_EXPERIMENT_PSYCHOPY_AU2220019_AU2220225,2024.1.5,None,2025-04-08 10h37.30.614949 +0530,
fear.jpg,f,19,2,116,0,242.79602780006826,,,,,,,,,,,,,,,,242.78084979997948,242.79602780006826,244.29491969989613,244.29491969989613,244.31107529997826,244.92861340008676,f,1,0.6198058999143541,None,,,N20,001,2025-04-08_10h37.12.526,416_EXPERIMENT_PSYCHOPY_AU2220019_AU2220225,2024.1.5,None,2025-04-08 10h37.30.614949 +0530,
fear_lower_blur.jpg,f,19,3,117,3,244.94348650006577,,,,,,,,,,,,,,,,244.92922769999132,244.94348650006577,246.44271970004775,246.44271970004775,246.44271970004775,246.97676929994486,f,1,0.5247997001279145,None,,,N20,001,2025-04-08_10h37.12.526,416_EXPERIMENT_PSYCHOPY_AU2220019_AU2220225,2024.1.5,None,2025-04-08 10h37.30.614949 +0530,
surprise_lower_blur.jpg,s,19,4,118,5,246.99229290010408,,,,,,,,,,,,,,,,246.97738620010205,246.99229290010408,248.49105569999665,248.49105569999665,248.50776920001954,248.99127899995074,s,1,0.49502269993536174,None,,,N20,001,2025-04-08_10h37.12.526,416_EXPERIMENT_PSYCHOPY_AU2220019_AU2220225,2024.1.5,None,2025-04-08 10h37.30.614949 +0530,
surprise.jpg,s,19,5,119,1,249.0062635000795,,,,,,,,,,,,,,,,248.99183210008778,249.0062635000795,250.5053127000574,250.5053127000574,250.52188870008104,251.00581609993242,s,1,0.4946003998629749,None,,,N20,001,2025-04-08_10h37.12.526,416_EXPERIMENT_PSYCHOPY_AU2220019_AU2220225,2024.1.5,None,2025-04-08 10h37.30.614949 +0530,
