stimulus_image,correct_response,loop.thisRepN,loop.thisTrialN,loop.thisN,loop.thisIndex,thisRow.t,notes,guide.started,instructions.started,ins_resp.started,guide.stopped,ins_resp.keys,ins_resp.rt,ins_resp.duration,guide_2.started,ins_resp_2.started,instructions_2.started,guide_2.stopped,ins_resp_2.keys,ins_resp_2.rt,ins_resp_2.duration,trial.started,fixation.started,image.started,key_resp.started,fixation.stopped,trial.stopped,key_resp.keys,key_resp.corr,key_resp.rt,key_resp.duration,image.stopped,key_resp.stopped,participant,session,date,expName,psychopyVersion,frameRate,expStart,
,,,,,,,,0.002103899954818189,0.010024599963799119,0.010024599963799119,9.612049599993043,space,9.492194899939932,None,,,,,,,,,,,,,,,,,,,,N21,001,2025-03-31_19h11.57.727,416_EXPERIMENT_PSYCHOPY_AU2220019_AU2220225,2024.1.5,None,2025-03-31 19h30.53.818885 +0530,
,,,,,,,,,,,,,,,9.612079199985601,9.615456099971198,9.615456099971198,13.881383200059645,space,4.258652699994855,None,,,,,,,,,,,,,N21,001,2025-03-31_19h11.57.727,416_EXPERIMENT_PSYCHOPY_AU2220019_AU2220225,2024.1.5,None,2025-03-31 19h30.53.818885 +0530,
fear_lower_blur.jpg,f,0,0,0,3,13.973621299955994,,,,,,,,,,,,,,,,13.949103599996306,13.973621299955994,15.453494200017303,15.453494200017303,15.478494900045916,15.965117900050245,f,1,0.5005426000570878,None,,,N21,001,2025-03-31_19h11.57.727,416_EXPERIMENT_PSYCHOPY_AU2220019_AU2220225,2024.1.5,None,2025-03-31 19h30.53.818885 +0530,
surprise_upper_blur.jpg,s,0,1,1,4,16.007850100053474,,,,,,,,,,,,,,,,15.983640999998897,16.007850100053474,17.495705800014548,17.495705800014548,17.51228450005874,18.161989300046116,s,1,0.6518503999104723,None,,,N21,001,2025-03-31_19h11.57.727,416_EXPERIMENT_PSYCHOPY_AU2220019_AU2220225,2024.1.5,None,2025-03-31 19h30.53.818885 +0530,
fear_upper_blur.jpg,f,0,2,2,2,18.229169300058857,,,,,,,,,,,,,,,,18.163458800059743,18.229169300058857,19.675288900034502,19.675288900034502,19.74082669999916,20.326489500002936,s,0,0.6422491000266746,None,,,N21,001,2025-03-31_19h11.57.727,416_EXPERIMENT_PSYCHOPY_AU2220019_AU2220225,2024.1.5,None,2025-03-31 19h30.53.818885 +0530,
surprise_lower_blur.jpg,s,0,3,3,5,20.34928409999702,,,,,,,,,,,,,,,,20.327129899989814,20.34928409999702,21.840601000003517,21.840601000003517,21.85715389996767,22.391380900051445,s,1,0.5350966999540105,None,,,N21,001,2025-03-31_19h11.57.727,416_EXPERIMENT_PSYCHOPY_AU2220019_AU2220225,2024.1.5,None,2025-03-31 19h30.53.818885 +0530,
surprise.jpg,s,0,4,4,1,22.414451300050132,,,,,,,,,,,,,,,,22.3922806000337,22.414451300050132,23.905085899983533,23.905085899983533,23.923034699982964,24.35763850004878,s,1,0.4472368999850005,None,,,N21,001,2025-03-31_19h11.57.727,416_EXPERIMENT_PSYCHOPY_AU2220019_AU2220225,2024.1.5,None,2025-03-31 19h30.53.818885 +0530,
fear.jpg,f,0,5,5,0,24.389974800054915,,,,,,,,,,,,,,,,24.358940199948847,24.389974800054915,25.870099400053732,25.870099400053732,25.903701600036584,26.28577930002939,f,1,0.40998470003250986,None,,,N21,001,2025-03-31_19h11.57.727,416_EXPERIMENT_PSYCHOPY_AU2220019_AU2220225,2024.1.5,None,2025-03-31 19h30.53.818885 +0530,
fear_upper_blur.jpg,f,1,0,6,2,26.30284090002533,,,,,,,,,,,,,,,,26.286716100061312,26.30284090002533,27.801030299975537,27.801030299975537,27.817563300020993,28.33654279995244,f,1,0.5320345000363886,None,,,N21,001,2025-03-31_19h11.57.727,416_EXPERIMENT_PSYCHOPY_AU2220019_AU2220225,2024.1.5,None,2025-03-31 19h30.53.818885 +0530,
surprise_lower_blur.jpg,s,1,1,7,5,28.352484600036405,,,,,,,,,,,,,,,,28.337593500036746,28.352484600036405,29.849458000040613,29.849458000040613,29.86619420000352,30.384071200038306,s,1,0.5283954000333324,None,,,N21,001,2025-03-31_19h11.57.727,416_EXPERIMENT_PSYCHOPY_AU2220019_AU2220225,2024.1.5,None,2025-03-31 19h30.53.818885 +0530,
fear.jpg,f,1,2,8,0,30.40193769999314,,,,,,,,,,,,,,,,30.384986600023694,30.40193769999314,31.8970228000544,31.8970228000544,31.913090800051577,32.39887879998423,f,1,0.48964460007846355,None,,,N21,001,2025-03-31_19h11.57.727,416_EXPERIMENT_PSYCHOPY_AU2220019_AU2220225,2024.1.5,None,2025-03-31 19h30.53.818885 +0530,
surprise.jpg,s,1,3,9,1,32.41608210001141,,,,,,,,,,,,,,,,32.39982649998274,32.41608210001141,33.91350370005239,33.91350370005239,33.928326900000684,34.47900289995596,s,1,0.5602279999293387,None,,,N21,001,2025-03-31_19h11.57.727,416_EXPERIMENT_PSYCHOPY_AU2220019_AU2220225,2024.1.5,None,2025-03-31 19h30.53.818885 +0530,
surprise_upper_blur.jpg,s,1,4,10,4,34.4946295999689,,,,,,,,,,,,,,,,34.479727800004184,34.4946295999689,35.99399390001781,35.99399390001781,35.99399390001781,36.52607999998145,s,1,0.5229491000063717,None,,,N21,001,2025-03-31_19h11.57.727,416_EXPERIMENT_PSYCHOPY_AU2220019_AU2220225,2024.1.5,None,2025-03-31 19h30.53.818885 +0530,
fear_lower_blur.jpg,f,1,5,11,3,36.54249859997071,,,,,,,,,,,,,,,,36.52695329999551,36.54249859997071,38.04095449997112,38.04095449997112,38.059082800056785,38.559721300029196,f,1,0.5045573000097647,None,,,N21,001,2025-03-31_19h11.57.727,416_EXPERIMENT_PSYCHOPY_AU2220019_AU2220225,2024.1.5,None,2025-03-31 19h30.53.818885 +0530,
fear.jpg,f,2,0,12,0,38.57585739996284,,,,,,,,,,,,,,,,38.560670600039884,38.57585739996284,40.071206300053746,40.071206300053746,40.08782280003652,40.57268930005375,f,1,0.4916990998899564,None,,,N21,001,2025-03-31_19h11.57.727,416_EXPERIMENT_PSYCHOPY_AU2220019_AU2220225,2024.1.5,None,2025-03-31 19h30.53.818885 +0530,
surprise_upper_blur.jpg,s,2,1,13,4,40.58717750001233,,,,,,,,,,,,,,,,40.57357230002526,40.58717750001233,42.086509000044316,42.086509000044316,42.086509000044316,42.605511700036004,s,1,0.5014368999982253,None,,,N21,001,2025-03-31_19h11.57.727,416_EXPERIMENT_PSYCHOPY_AU2220019_AU2220225,2024.1.5,None,2025-03-31 19h30.53.818885 +0530,
fear_upper_blur.jpg,f,2,2,14,2,42.63322119996883,,,,,,,,,,,,,,,,42.60636670002714,42.63322119996883,44.12134800001513,44.12134800001513,44.1336191999726,44.53579510003328,f,1,0.4119720000308007,None,,,N21,001,2025-03-31_19h11.57.727,416_EXPERIMENT_PSYCHOPY_AU2220019_AU2220225,2024.1.5,None,2025-03-31 19h30.53.818885 +0530,
surprise_lower_blur.jpg,s,2,3,15,5,44.553322099964134,,,,,,,,,,,,,,,,44.53667000005953,44.553322099964134,46.031433500000276,46.031433500000276,46.06717359996401,46.52022439998109,s,1,0.4695206000469625,None,,,N21,001,2025-03-31_19h11.57.727,416_EXPERIMENT_PSYCHOPY_AU2220019_AU2220225,2024.1.5,None,2025-03-31 19h30.53.818885 +0530,
surprise.jpg,s,2,4,16,1,46.53689430002123,,,,,,,,,,,,,,,,46.521983099984936,46.53689430002123,48.03105540003162,48.03105540003162,48.049592299968936,48.783805200015195,None,0,,,,,N21,001,2025-03-31_19h11.57.727,416_EXPERIMENT_PSYCHOPY_AU2220019_AU2220225,2024.1.5,None,2025-03-31 19h30.53.818885 +0530,
fear_lower_blur.jpg,f,2,5,17,3,48.80073270003777,,,,,,,,,,,,,,,,48.78477579995524,48.80073270003777,50.27982209995389,50.27982209995389,50.315330200013705,50.78090080001857,f,1,0.494162300019525,None,,,N21,001,2025-03-31_19h11.57.727,416_EXPERIMENT_PSYCHOPY_AU2220019_AU2220225,2024.1.5,None,2025-03-31 19h30.53.818885 +0530,
fear_lower_blur.jpg,f,3,0,18,3,50.795400899951346,,,,,,,,,,,,,,,,50.78162599995267,50.795400899951346,52.29388460004702,52.29388460004702,52.310723199974746,52.7462080999976,f,1,0.45020139997359365,None,,,N21,001,2025-03-31_19h11.57.727,416_EXPERIMENT_PSYCHOPY_AU2220019_AU2220225,2024.1.5,None,2025-03-31 19h30.53.818885 +0530,
fear_upper_blur.jpg,f,3,1,19,2,52.76165670005139,,,,,,,,,,,,,,,,52.74724000005517,52.76165670005139,54.25787740002852,54.25787740002852,54.27716890000738,54.712592100026086,f,1,0.4376868999097496,None,,,N21,001,2025-03-31_19h11.57.727,416_EXPERIMENT_PSYCHOPY_AU2220019_AU2220225,2024.1.5,None,2025-03-31 19h30.53.818885 +0530,
surprise.jpg,s,3,2,20,1,54.74068399996031,,,,,,,,,,,,,,,,54.71334180003032,54.74068399996031,56.22149819997139,56.22149819997139,56.25498269998934,56.908922099974006,s,1,0.6795064000179991,None,,,N21,001,2025-03-31_19h11.57.727,416_EXPERIMENT_PSYCHOPY_AU2220019_AU2220225,2024.1.5,None,2025-03-31 19h30.53.818885 +0530,
surprise_lower_blur.jpg,s,3,3,21,5,56.93557029997464,,,,,,,,,,,,,,,,56.909911400056444,56.93557029997464,58.42222309997305,58.42222309997305,58.436316399951465,58.85757230001036,s,1,0.4248683999758214,None,,,N21,001,2025-03-31_19h11.57.727,416_EXPERIMENT_PSYCHOPY_AU2220019_AU2220225,2024.1.5,None,2025-03-31 19h30.53.818885 +0530,
fear.jpg,f,3,4,22,0,58.87425130000338,,,,,,,,,,,,,,,,58.858883999986574,58.87425130000338,60.36860299995169,60.36860299995169,60.386014000047,61.02042880002409,s,0,0.6423602000577375,None,,,N21,001,2025-03-31_19h11.57.727,416_EXPERIMENT_PSYCHOPY_AU2220019_AU2220225,2024.1.5,None,2025-03-31 19h30.53.818885 +0530,
surprise_upper_blur.jpg,s,3,5,23,4,61.04866299999412,,,,,,,,,,,,,,,,61.02151920006145,61.04866299999412,62.53543789999094,62.53543789999094,62.54985830001533,63.283268700004555,None,0,,,,,N21,001,2025-03-31_19h11.57.727,416_EXPERIMENT_PSYCHOPY_AU2220019_AU2220225,2024.1.5,None,2025-03-31 19h30.53.818885 +0530,
fear_upper_blur.jpg,f,4,0,24,2,63.29908739996608,,,,,,,,,,,,,,,,63.284066700027324,63.29908739996608,64.78101369994693,64.78101369994693,64.81356719997711,65.31347789999563,f,1,0.5259685000637546,None,,,N21,001,2025-03-31_19h11.57.727,416_EXPERIMENT_PSYCHOPY_AU2220019_AU2220225,2024.1.5,None,2025-03-31 19h30.53.818885 +0530,
fear_lower_blur.jpg,f,4,1,25,3,65.33325360005256,,,,,,,,,,,,,,,,65.31423110002652,65.33325360005256,66.81182499998249,66.81182499998249,66.84520530002192,67.37892439996358,f,1,0.5580982998944819,None,,,N21,001,2025-03-31_19h11.57.727,416_EXPERIMENT_PSYCHOPY_AU2220019_AU2220225,2024.1.5,None,2025-03-31 19h30.53.818885 +0530,
fear.jpg,f,4,2,26,0,67.39805850002449,,,,,,,,,,,,,,,,67.37986570002977,67.39805850002449,68.87742789997719,68.87742789997719,68.90947770001367,69.44478839996736,f,1,0.5551310000009835,None,,,N21,001,2025-03-31_19h11.57.727,416_EXPERIMENT_PSYCHOPY_AU2220019_AU2220225,2024.1.5,None,2025-03-31 19h30.53.818885 +0530,
surprise_lower_blur.jpg,s,4,3,27,5,69.46210190001875,,,,,,,,,,,,,,,,69.44540890003555,69.46210190001875,70.95814140001312,70.95814140001312,70.97442169999704,71.46236260002479,s,1,0.4973194000776857,None,,,N21,001,2025-03-31_19h11.57.727,416_EXPERIMENT_PSYCHOPY_AU2220019_AU2220225,2024.1.5,None,2025-03-31 19h30.53.818885 +0530,
surprise.jpg,s,4,4,28,1,71.48847099998966,,,,,,,,,,,,,,,,71.46311560005415,71.48847099998966,72.97392919997219,72.97392919997219,72.98902189999353,73.5588662000373,s,1,0.5755064999684691,None,,,N21,001,2025-03-31_19h11.57.727,416_EXPERIMENT_PSYCHOPY_AU2220019_AU2220225,2024.1.5,None,2025-03-31 19h30.53.818885 +0530,
surprise_upper_blur.jpg,s,4,5,29,4,73.57474569999613,,,,,,,,,,,,,,,,73.55997740000021,73.57474569999613,75.07166180002969,75.07166180002969,75.08743509999476,75.80916930001695,None,0,,,75.82488530001137,75.82488530001137,N21,001,2025-03-31_19h11.57.727,416_EXPERIMENT_PSYCHOPY_AU2220019_AU2220225,2024.1.5,None,2025-03-31 19h30.53.818885 +0530,
fear.jpg,f,5,0,30,0,75.82488530001137,,,,,,,,,,,,,,,,75.81060259998776,75.82488530001137,77.31808070000261,77.31808070000261,77.33506860001944,77.6857548999833,f,1,0.3643290000036359,None,,,N21,001,2025-03-31_19h11.57.727,416_EXPERIMENT_PSYCHOPY_AU2220019_AU2220225,2024.1.5,None,2025-03-31 19h30.53.818885 +0530,
fear_upper_blur.jpg,f,5,1,31,2,77.70134150004014,,,,,,,,,,,,,,,,77.68651879997924,77.70134150004014,79.18268980004359,79.18268980004359,79.216861300054,79.63641030003782,f,1,0.441839300096035,None,,,N21,001,2025-03-31_19h11.57.727,416_EXPERIMENT_PSYCHOPY_AU2220019_AU2220225,2024.1.5,None,2025-03-31 19h30.53.818885 +0530,
surprise_upper_blur.jpg,s,5,2,32,4,79.6489930000389,,,,,,,,,,,,,,,,79.63697830005549,79.6489930000389,81.14813159999903,81.14813159999903,81.14813159999903,81.6328106999863,s,1,0.470583499991335,None,,,N21,001,2025-03-31_19h11.57.727,416_EXPERIMENT_PSYCHOPY_AU2220019_AU2220225,2024.1.5,None,2025-03-31 19h30.53.818885 +0530,
surprise.jpg,s,5,3,33,1,81.64855609997176,,,,,,,,,,,,,,,,81.63354129996151,81.64855609997176,83.14603319996968,83.14603319996968,83.16384960000869,83.61411129997578,s,1,0.45391969999764115,None,,,N21,001,2025-03-31_19h11.57.727,416_EXPERIMENT_PSYCHOPY_AU2220019_AU2220225,2024.1.5,None,2025-03-31 19h30.53.818885 +0530,
surprise_lower_blur.jpg,s,5,4,34,5,83.62982919998467,,,,,,,,,,,,,,,,83.6153331999667,83.62982919998467,85.12843459995929,85.12843459995929,85.14428660005797,85.69631669996306,s,1,0.5624131999211386,None,,,N21,001,2025-03-31_19h11.57.727,416_EXPERIMENT_PSYCHOPY_AU2220019_AU2220225,2024.1.5,None,2025-03-31 19h30.53.818885 +0530,
fear_lower_blur.jpg,f,5,5,35,3,85.71018309995998,,,,,,,,,,,,,,,,85.69691239995882,85.71018309995998,87.20946379995439,87.20946379995439,87.20946379995439,87.59334280004259,f,1,0.3735873999539763,None,,,N21,001,2025-03-31_19h11.57.727,416_EXPERIMENT_PSYCHOPY_AU2220019_AU2220225,2024.1.5,None,2025-03-31 19h30.53.818885 +0530,
fear.jpg,f,6,0,36,0,87.60750000004191,,,,,,,,,,,,,,,,87.59431179997046,87.60750000004191,89.1070968999993,89.1070968999993,89.1070968999993,89.52598070004024,f,1,0.40641189995221794,None,,,N21,001,2025-03-31_19h11.57.727,416_EXPERIMENT_PSYCHOPY_AU2220019_AU2220225,2024.1.5,None,2025-03-31 19h30.53.818885 +0530,
surprise.jpg,s,6,1,37,1,89.54012809996493,,,,,,,,,,,,,,,,89.52653419994749,89.54012809996493,91.03716069995426,91.03716069995426,91.03716069995426,91.3726566999685,s,1,0.3295899999793619,None,,,N21,001,2025-03-31_19h11.57.727,416_EXPERIMENT_PSYCHOPY_AU2220019_AU2220225,2024.1.5,None,2025-03-31 19h30.53.818885 +0530,
surprise_lower_blur.jpg,s,6,2,38,5,91.3907563999528,,,,,,,,,,,,,,,,91.37366839998867,91.3907563999528,92.86924739996903,92.86924739996903,92.90442230005283,93.33671389997471,s,1,0.4643985000438988,None,,,N21,001,2025-03-31_19h11.57.727,416_EXPERIMENT_PSYCHOPY_AU2220019_AU2220225,2024.1.5,None,2025-03-31 19h30.53.818885 +0530,
fear_upper_blur.jpg,f,6,3,39,2,93.35556739999447,,,,,,,,,,,,,,,,93.3374591000611,93.35556739999447,94.83386160002556,94.83386160002556,94.86790319997817,95.25540000002366,f,1,0.41299400001298636,None,,,N21,001,2025-03-31_19h11.57.727,416_EXPERIMENT_PSYCHOPY_AU2220019_AU2220225,2024.1.5,None,2025-03-31 19h30.53.818885 +0530,
fear_lower_blur.jpg,f,6,4,40,3,95.28192440001294,,,,,,,,,,,,,,,,95.25675219995901,95.28192440001294,96.76967039995361,96.76967039995361,96.78210650000256,97.23683199996594,f,1,0.4658308000070974,None,,,N21,001,2025-03-31_19h11.57.727,416_EXPERIMENT_PSYCHOPY_AU2220019_AU2220225,2024.1.5,None,2025-03-31 19h30.53.818885 +0530,
surprise_upper_blur.jpg,s,6,5,41,4,97.26317749998998,,,,,,,,,,,,,,,,97.23763680004049,97.26317749998998,98.74971070000902,98.74971070000902,98.7653765999712,99.11814280005638,s,1,0.36688920005690306,None,,,N21,001,2025-03-31_19h11.57.727,416_EXPERIMENT_PSYCHOPY_AU2220019_AU2220225,2024.1.5,None,2025-03-31 19h30.53.818885 +0530,
fear_lower_blur.jpg,f,7,0,42,3,99.13489830004983,,,,,,,,,,,,,,,,99.1190960999811,99.13489830004983,100.62862700002734,100.62862700002734,100.64535640005488,101.07958280004095,f,1,0.4407975999638438,None,,,N21,001,2025-03-31_19h11.57.727,416_EXPERIMENT_PSYCHOPY_AU2220019_AU2220225,2024.1.5,None,2025-03-31 19h30.53.818885 +0530,
fear.jpg,f,7,1,43,0,101.09535560000222,,,,,,,,,,,,,,,,101.08043219998945,101.09535560000222,102.59371849999297,102.59371849999297,102.59371849999297,103.04839620005805,f,1,0.4389835000038147,None,,,N21,001,2025-03-31_19h11.57.727,416_EXPERIMENT_PSYCHOPY_AU2220019_AU2220225,2024.1.5,None,2025-03-31 19h30.53.818885 +0530,
fear_upper_blur.jpg,f,7,2,44,2,103.07404960005078,,,,,,,,,,,,,,,,103.04932959994767,103.07404960005078,104.5616933000274,104.5616933000274,104.57559549994767,104.97652819997165,f,1,0.4071334999753162,None,,,N21,001,2025-03-31_19h11.57.727,416_EXPERIMENT_PSYCHOPY_AU2220019_AU2220225,2024.1.5,None,2025-03-31 19h30.53.818885 +0530,
surprise_lower_blur.jpg,s,7,3,45,5,104.99145750002936,,,,,,,,,,,,,,,,104.97728190000635,104.99145750002936,106.49052949994802,106.49052949994802,106.50554339995142,106.94080910005141,s,1,0.4368318000342697,None,,,N21,001,2025-03-31_19h11.57.727,416_EXPERIMENT_PSYCHOPY_AU2220019_AU2220225,2024.1.5,None,2025-03-31 19h30.53.818885 +0530,
surprise_upper_blur.jpg,s,7,4,46,4,106.95853069995064,,,,,,,,,,,,,,,,106.94169769994915,106.95853069995064,108.45633549999911,108.45633549999911,108.47073000005912,109.10458879999351,f,0,0.6369957000715658,None,,,N21,001,2025-03-31_19h11.57.727,416_EXPERIMENT_PSYCHOPY_AU2220019_AU2220225,2024.1.5,None,2025-03-31 19h30.53.818885 +0530,
surprise.jpg,s,7,5,47,1,109.12089310004376,,,,,,,,,,,,,,,,109.10535259998869,109.12089310004376,110.62320509995334,110.62320509995334,110.6355819000164,111.22003179998137,s,1,0.5931952999671921,None,,,N21,001,2025-03-31_19h11.57.727,416_EXPERIMENT_PSYCHOPY_AU2220019_AU2220225,2024.1.5,None,2025-03-31 19h30.53.818885 +0530,
fear.jpg,f,8,0,48,0,111.2358508000616,,,,,,,,,,,,,,,,111.22066949994769,111.2358508000616,112.73325010004919,112.73325010004919,112.7536834999919,113.25343090004753,f,1,0.5051829000003636,None,,,N21,001,2025-03-31_19h11.57.727,416_EXPERIMENT_PSYCHOPY_AU2220019_AU2220225,2024.1.5,None,2025-03-31 19h30.53.818885 +0530,
fear_lower_blur.jpg,f,8,1,49,3,113.28377510001883,,,,,,,,,,,,,,,,113.25428979995195,113.28377510001883,114.7660192999756,114.7660192999756,114.79777870001271,115.13311149994843,f,1,0.3646982000209391,None,,,N21,001,2025-03-31_19h11.57.727,416_EXPERIMENT_PSYCHOPY_AU2220019_AU2220225,2024.1.5,None,2025-03-31 19h30.53.818885 +0530,
fear_upper_blur.jpg,f,8,2,50,2,115.14895599999,,,,,,,,,,,,,,,,115.1340628999751,115.14895599999,116.64603089995217,116.64603089995217,116.66266479995102,117.21702179999556,f,1,0.5535774000454694,None,,,N21,001,2025-03-31_19h11.57.727,416_EXPERIMENT_PSYCHOPY_AU2220019_AU2220225,2024.1.5,None,2025-03-31 19h30.53.818885 +0530,
surprise_upper_blur.jpg,s,8,3,51,4,117.2439973000437,,,,,,,,,,,,,,,,117.21846720005851,117.2439973000437,118.7306165000191,118.7306165000191,118.74608379998244,119.46582609997131,None,0,,,119.48434199998155,119.48434199998155,N21,001,2025-03-31_19h11.57.727,416_EXPERIMENT_PSYCHOPY_AU2220019_AU2220225,2024.1.5,None,2025-03-31 19h30.53.818885 +0530,
surprise_lower_blur.jpg,s,8,4,52,5,119.48434199998155,,,,,,,,,,,,,,,,119.46702660003211,119.48434199998155,120.97594709997065,120.97594709997065,120.99459430004936,121.39533389999997,f,0,0.4028909000335261,None,,,N21,001,2025-03-31_19h11.57.727,416_EXPERIMENT_PSYCHOPY_AU2220019_AU2220225,2024.1.5,None,2025-03-31 19h30.53.818885 +0530,
surprise.jpg,s,8,5,53,1,121.42522560001817,,,,,,,,,,,,,,,,121.39639530004933,121.42522560001817,122.90781080001034,122.90781080001034,122.92514680000022,123.57524889998604,s,1,0.6600361000746489,None,,,N21,001,2025-03-31_19h11.57.727,416_EXPERIMENT_PSYCHOPY_AU2220019_AU2220225,2024.1.5,None,2025-03-31 19h30.53.818885 +0530,
fear.jpg,f,9,0,54,0,123.5911053000018,,,,,,,,,,,,,,,,123.57582380005624,123.5911053000018,125.09070579998661,125.09070579998661,125.10568859998602,125.43903630005661,f,1,0.3439647000050172,None,,,N21,001,2025-03-31_19h11.57.727,416_EXPERIMENT_PSYCHOPY_AU2220019_AU2220225,2024.1.5,None,2025-03-31 19h30.53.818885 +0530,
fear_lower_blur.jpg,f,9,1,55,3,125.45573389995843,,,,,,,,,,,,,,,,125.43962610000744,125.45573389995843,126.95598400000017,126.95598400000017,126.96927740005776,127.4232301999582,f,1,0.4562503000488505,None,,,N21,001,2025-03-31_19h11.57.727,416_EXPERIMENT_PSYCHOPY_AU2220019_AU2220225,2024.1.5,None,2025-03-31 19h30.53.818885 +0530,
surprise.jpg,s,9,2,56,1,127.45006069994997,,,,,,,,,,,,,,,,127.42421099997591,127.45006069994997,128.93622260005213,128.93622260005213,128.9506798000075,129.51907469995786,s,1,0.5763355999952182,None,,,N21,001,2025-03-31_19h11.57.727,416_EXPERIMENT_PSYCHOPY_AU2220019_AU2220225,2024.1.5,None,2025-03-31 19h30.53.818885 +0530,
surprise_lower_blur.jpg,s,9,3,57,5,129.5355895999819,,,,,,,,,,,,,,,,129.51976940000895,129.5355895999819,131.01509680005256,131.01509680005256,131.04870949999895,131.41859290003777,s,1,0.3982502999715507,None,,,N21,001,2025-03-31_19h11.57.727,416_EXPERIMENT_PSYCHOPY_AU2220019_AU2220225,2024.1.5,None,2025-03-31 19h30.53.818885 +0530,
fear_upper_blur.jpg,f,9,4,58,2,131.43347120005637,,,,,,,,,,,,,,,,131.4199179999996,131.43347120005637,132.93230129999574,132.93230129999574,132.9466381999664,133.3991825999692,f,1,0.465428699972108,None,,,N21,001,2025-03-31_19h11.57.727,416_EXPERIMENT_PSYCHOPY_AU2220019_AU2220225,2024.1.5,None,2025-03-31 19h30.53.818885 +0530,
surprise_upper_blur.jpg,s,9,5,59,4,133.4159442000091,,,,,,,,,,,,,,,,133.40013219998218,133.4159442000091,134.91313440003432,134.91313440003432,134.9307880999986,135.3314084999729,s,1,0.4014904999639839,None,,,N21,001,2025-03-31_19h11.57.727,416_EXPERIMENT_PSYCHOPY_AU2220019_AU2220225,2024.1.5,None,2025-03-31 19h30.53.818885 +0530,
fear_lower_blur.jpg,f,10,0,60,3,135.3449048999464,,,,,,,,,,,,,,,,135.33221480005886,135.3449048999464,136.844345599995,136.844345599995,136.86276459996589,137.22946519998368,f,1,0.3784231001045555,None,,,N21,001,2025-03-31_19h11.57.727,416_EXPERIMENT_PSYCHOPY_AU2220019_AU2220225,2024.1.5,None,2025-03-31 19h30.53.818885 +0530,
surprise_upper_blur.jpg,s,10,1,61,4,137.24314030003734,,,,,,,,,,,,,,,,137.2301349999616,137.24314030003734,138.7416490999749,138.7416490999749,138.7416490999749,139.19367179996334,s,1,0.443066900013946,None,,,N21,001,2025-03-31_19h11.57.727,416_EXPERIMENT_PSYCHOPY_AU2220019_AU2220225,2024.1.5,None,2025-03-31 19h30.53.818885 +0530,
fear.jpg,f,10,2,62,0,139.20781920000445,,,,,,,,,,,,,,,,139.19434960000217,139.20781920000445,140.70678430004045,140.70678430004045,140.70678430004045,141.07394719996955,s,0,0.3600486000068486,None,,,N21,001,2025-03-31_19h11.57.727,416_EXPERIMENT_PSYCHOPY_AU2220019_AU2220225,2024.1.5,None,2025-03-31 19h30.53.818885 +0530,
surprise_lower_blur.jpg,s,10,3,63,5,141.08913960005157,,,,,,,,,,,,,,,,141.07550919998903,141.08913960005157,142.58850930002518,142.58850930002518,142.58850930002518,143.08824419998564,s,1,0.48704830009955913,None,,,N21,001,2025-03-31_19h11.57.727,416_EXPERIMENT_PSYCHOPY_AU2220019_AU2220225,2024.1.5,None,2025-03-31 19h30.53.818885 +0530,
surprise.jpg,s,10,4,64,1,143.10365910001565,,,,,,,,,,,,,,,,143.08888479997404,143.10365910001565,144.60249169997405,144.60249169997405,144.60249169997405,145.02276099997107,s,1,0.40994889999274164,None,,,N21,001,2025-03-31_19h11.57.727,416_EXPERIMENT_PSYCHOPY_AU2220019_AU2220225,2024.1.5,None,2025-03-31 19h30.53.818885 +0530,
fear_upper_blur.jpg,f,10,5,65,2,145.05322420003358,,,,,,,,,,,,,,,,145.02364589995705,145.05322420003358,146.53246250003576,146.53246250003576,146.566642699996,146.92064100003336,f,1,0.38397659990005195,None,,,N21,001,2025-03-31_19h11.57.727,416_EXPERIMENT_PSYCHOPY_AU2220019_AU2220225,2024.1.5,None,2025-03-31 19h30.53.818885 +0530,
fear_upper_blur.jpg,f,11,0,66,2,146.94766399997752,,,,,,,,,,,,,,,,146.92186350002885,146.94766399997752,148.43388599995524,148.43388599995524,148.44912909995764,148.8014140999876,s,0,0.35394679999444634,None,,,N21,001,2025-03-31_19h11.57.727,416_EXPERIMENT_PSYCHOPY_AU2220019_AU2220225,2024.1.5,None,2025-03-31 19h30.53.818885 +0530,
surprise_upper_blur.jpg,s,11,1,67,4,148.83300570002757,,,,,,,,,,,,,,,,148.80266230006237,148.83300570002757,150.31240239995532,150.31240239995532,150.34734380000737,150.91539019998163,s,1,0.588330400059931,None,,,N21,001,2025-03-31_19h11.57.727,416_EXPERIMENT_PSYCHOPY_AU2220019_AU2220225,2024.1.5,None,2025-03-31 19h30.53.818885 +0530,
surprise.jpg,s,11,2,68,1,150.93335299997125,,,,,,,,,,,,,,,,150.91682729998138,150.93335299997125,152.4287974999752,152.4287974999752,152.44407990004402,152.91332080005668,s,1,0.4803232999984175,None,,,N21,001,2025-03-31_19h11.57.727,416_EXPERIMENT_PSYCHOPY_AU2220019_AU2220225,2024.1.5,None,2025-03-31 19h30.53.818885 +0530,
surprise_lower_blur.jpg,s,11,3,69,5,152.9306720000459,,,,,,,,,,,,,,,,152.91417650005314,152.9306720000459,154.4295161999762,154.4295161999762,154.44465179997496,154.79594920005184,s,1,0.35989240009803325,None,,,N21,001,2025-03-31_19h11.57.727,416_EXPERIMENT_PSYCHOPY_AU2220019_AU2220225,2024.1.5,None,2025-03-31 19h30.53.818885 +0530,
fear.jpg,f,11,4,70,0,154.82620789995417,,,,,,,,,,,,,,,,154.79669770004693,154.82620789995417,156.3077177000232,156.3077177000232,156.34026710002217,156.69385359995067,s,0,0.3767278000013903,None,,,N21,001,2025-03-31_19h11.57.727,416_EXPERIMENT_PSYCHOPY_AU2220019_AU2220225,2024.1.5,None,2025-03-31 19h30.53.818885 +0530,
fear_lower_blur.jpg,f,11,5,71,3,156.70675729995128,,,,,,,,,,,,,,,,156.6945429999614,156.70675729995128,158.205459699966,158.205459699966,158.2246139999479,158.63968210003804,f,1,0.4234988000243902,None,,,N21,001,2025-03-31_19h11.57.727,416_EXPERIMENT_PSYCHOPY_AU2220019_AU2220225,2024.1.5,None,2025-03-31 19h30.53.818885 +0530,
surprise_upper_blur.jpg,s,12,0,72,4,158.65627260005567,,,,,,,,,,,,,,,,158.64052010001615,158.65627260005567,160.15583589999005,160.15583589999005,160.1705159000121,160.6227477999637,f,0,0.45974540000315756,None,,,N21,001,2025-03-31_19h11.57.727,416_EXPERIMENT_PSYCHOPY_AU2220019_AU2220225,2024.1.5,None,2025-03-31 19h30.53.818885 +0530,
fear_lower_blur.jpg,f,12,1,73,3,160.63669559999835,,,,,,,,,,,,,,,,160.62343799998052,160.63669559999835,162.1363890999928,162.1363890999928,162.1363890999928,162.78854880004656,s,0,0.6379022999899462,None,,,N21,001,2025-03-31_19h11.57.727,416_EXPERIMENT_PSYCHOPY_AU2220019_AU2220225,2024.1.5,None,2025-03-31 19h30.53.818885 +0530,
fear_upper_blur.jpg,f,12,2,74,2,162.80156970000826,,,,,,,,,,,,,,,,162.78917070000898,162.80156970000826,164.30042800004594,164.30042800004594,164.30042800004594,164.82154679996893,f,1,0.5174263999797404,None,,,N21,001,2025-03-31_19h11.57.727,416_EXPERIMENT_PSYCHOPY_AU2220019_AU2220225,2024.1.5,None,2025-03-31 19h30.53.818885 +0530,
fear.jpg,f,12,3,75,0,164.8365886999527,,,,,,,,,,,,,,,,164.82267689995933,164.8365886999527,166.3315192000009,166.3315192000009,166.3509403000353,166.81808780005667,f,1,0.4805133999325335,None,,,N21,001,2025-03-31_19h11.57.727,416_EXPERIMENT_PSYCHOPY_AU2220019_AU2220225,2024.1.5,None,2025-03-31 19h30.53.818885 +0530,
surprise.jpg,s,12,4,76,1,166.84745170001406,,,,,,,,,,,,,,,,166.8188313000137,166.84745170001406,168.3289708000375,168.3289708000375,168.36292480002157,168.8480614,s,1,0.505707300035283,None,,,N21,001,2025-03-31_19h11.57.727,416_EXPERIMENT_PSYCHOPY_AU2220019_AU2220225,2024.1.5,None,2025-03-31 19h30.53.818885 +0530,
surprise_lower_blur.jpg,s,12,5,77,5,168.86161270004231,,,,,,,,,,,,,,,,168.84887840005103,168.86161270004231,170.3597176000476,170.3597176000476,170.3597176000476,171.0953471000539,None,0,,,171.11289999994915,171.11289999994915,N21,001,2025-03-31_19h11.57.727,416_EXPERIMENT_PSYCHOPY_AU2220019_AU2220225,2024.1.5,None,2025-03-31 19h30.53.818885 +0530,
fear_lower_blur.jpg,f,13,0,78,3,171.11289999994915,,,,,,,,,,,,,,,,171.09627850004472,171.11289999994915,172.610438899952,172.610438899952,172.62567650002893,173.15902530006133,f,1,0.535757299978286,None,,,N21,001,2025-03-31_19h11.57.727,416_EXPERIMENT_PSYCHOPY_AU2220019_AU2220225,2024.1.5,None,2025-03-31 19h30.53.818885 +0530,
surprise_lower_blur.jpg,s,13,1,79,5,173.17686260002665,,,,,,,,,,,,,,,,173.15986989997327,173.17686260002665,174.67747090000194,174.67747090000194,174.6898209999781,175.2577274000505,s,1,0.5780810000142083,None,,,N21,001,2025-03-31_19h11.57.727,416_EXPERIMENT_PSYCHOPY_AU2220019_AU2220225,2024.1.5,None,2025-03-31 19h30.53.818885 +0530,
fear.jpg,f,13,2,80,0,175.27504249999765,,,,,,,,,,,,,,,,175.2586225999985,175.27504249999765,176.75458269997034,176.75458269997034,176.78784200001974,177.2726810000604,s,0,0.5131798000074923,None,,,N21,001,2025-03-31_19h11.57.727,416_EXPERIMENT_PSYCHOPY_AU2220019_AU2220225,2024.1.5,None,2025-03-31 19h30.53.818885 +0530,
surprise.jpg,s,13,3,81,1,177.28748559998348,,,,,,,,,,,,,,,,177.2737269999925,177.28748559998348,178.78531469998416,178.78531469998416,178.78531469998416,179.28661970002577,s,1,0.48511669994331896,None,,,N21,001,2025-03-31_19h11.57.727,416_EXPERIMENT_PSYCHOPY_AU2220019_AU2220225,2024.1.5,None,2025-03-31 19h30.53.818885 +0530,
surprise_upper_blur.jpg,s,13,4,82,4,179.30427490000147,,,,,,,,,,,,,,,,179.28760000003967,179.30427490000147,180.80374799994752,180.80374799994752,180.8187141000526,181.43682840000838,s,1,0.6310534999938682,None,,,N21,001,2025-03-31_19h11.57.727,416_EXPERIMENT_PSYCHOPY_AU2220019_AU2220225,2024.1.5,None,2025-03-31 19h30.53.818885 +0530,
fear_upper_blur.jpg,f,13,5,83,2,181.4666374999797,,,,,,,,,,,,,,,,181.43759630003478,181.4666374999797,182.9481109000044,182.9481109000044,182.98232800001279,183.50116410001647,f,1,0.5353793000103906,None,,,N21,001,2025-03-31_19h11.57.727,416_EXPERIMENT_PSYCHOPY_AU2220019_AU2220225,2024.1.5,None,2025-03-31 19h30.53.818885 +0530,
surprise.jpg,s,14,0,84,1,183.53160560003016,,,,,,,,,,,,,,,,183.50216559995897,183.53160560003016,185.01204719999805,185.01204719999805,185.04586549999658,185.74708989995997,None,0,,,185.76494649995584,185.76494649995584,N21,001,2025-03-31_19h11.57.727,416_EXPERIMENT_PSYCHOPY_AU2220019_AU2220225,2024.1.5,None,2025-03-31 19h30.53.818885 +0530,
surprise_lower_blur.jpg,s,14,1,85,5,185.76494649995584,,,,,,,,,,,,,,,,185.74785160005558,185.76494649995584,187.26405390002765,187.26405390002765,187.27613090001978,187.76396909996402,s,1,0.4950077999383211,None,,,N21,001,2025-03-31_19h11.57.727,416_EXPERIMENT_PSYCHOPY_AU2220019_AU2220225,2024.1.5,None,2025-03-31 19h30.53.818885 +0530,
surprise_upper_blur.jpg,s,14,2,86,4,187.7936686000321,,,,,,,,,,,,,,,,187.7648262999719,187.7936686000321,189.2754190999549,189.2754190999549,189.30783920001704,189.77650839998387,s,1,0.4966405000304803,None,,,N21,001,2025-03-31_19h11.57.727,416_EXPERIMENT_PSYCHOPY_AU2220019_AU2220225,2024.1.5,None,2025-03-31 19h30.53.818885 +0530,
fear_upper_blur.jpg,f,14,3,87,2,189.79480499995407,,,,,,,,,,,,,,,,189.77715420001186,189.79480499995407,191.2934346999973,191.2934346999973,191.30646320001688,191.69371000002138,s,0,0.3803955999901518,None,,,N21,001,2025-03-31_19h11.57.727,416_EXPERIMENT_PSYCHOPY_AU2220019_AU2220225,2024.1.5,None,2025-03-31 19h30.53.818885 +0530,
fear_lower_blur.jpg,f,14,4,88,3,191.71070759999566,,,,,,,,,,,,,,,,191.69517159997486,191.71070759999566,193.2058015000075,193.2058015000075,193.22434239997528,193.62334189994726,f,1,0.40736019995529205,None,,,N21,001,2025-03-31_19h11.57.727,416_EXPERIMENT_PSYCHOPY_AU2220019_AU2220225,2024.1.5,None,2025-03-31 19h30.53.818885 +0530,
fear.jpg,f,14,5,89,0,193.63749989995267,,,,,,,,,,,,,,,,193.62414530001115,193.63749989995267,195.13698429998476,195.13698429998476,195.13698429998476,195.67121509998105,f,1,0.5252029000548646,None,,,N21,001,2025-03-31_19h11.57.727,416_EXPERIMENT_PSYCHOPY_AU2220019_AU2220225,2024.1.5,None,2025-03-31 19h30.53.818885 +0530,
fear_lower_blur.jpg,f,15,0,90,3,195.68927259999327,,,,,,,,,,,,,,,,195.6727958000265,195.68927259999327,197.18680729996413,197.18680729996413,197.2010837000562,197.62195149995387,f,1,0.42729969997890294,None,,,N21,001,2025-03-31_19h11.57.727,416_EXPERIMENT_PSYCHOPY_AU2220019_AU2220225,2024.1.5,None,2025-03-31 19h30.53.818885 +0530,
surprise.jpg,s,15,1,91,1,197.64798969996627,,,,,,,,,,,,,,,,197.6236554000061,197.64798969996627,199.13454810006078,199.13454810006078,199.14919150003698,199.7491826999467,s,1,0.6033924000803381,None,,,N21,001,2025-03-31_19h11.57.727,416_EXPERIMENT_PSYCHOPY_AU2220019_AU2220225,2024.1.5,None,2025-03-31 19h30.53.818885 +0530,
fear.jpg,f,15,2,92,0,199.76634149998426,,,,,,,,,,,,,,,,199.75065279996488,199.76634149998426,201.26650330005214,201.26650330005214,201.27942689997144,201.79940360004548,f,1,0.5292888000840321,None,,,N21,001,2025-03-31_19h11.57.727,416_EXPERIMENT_PSYCHOPY_AU2220019_AU2220225,2024.1.5,None,2025-03-31 19h30.53.818885 +0530,
surprise_upper_blur.jpg,s,15,3,93,4,201.8125723999692,,,,,,,,,,,,,,,,201.80001660005655,201.8125723999692,203.31171519996133,203.31171519996133,203.31171519996133,203.8136343000224,s,1,0.49797729996498674,None,,,N21,001,2025-03-31_19h11.57.727,416_EXPERIMENT_PSYCHOPY_AU2220019_AU2220225,2024.1.5,None,2025-03-31 19h30.53.818885 +0530,
fear_upper_blur.jpg,f,15,4,94,2,203.82843710004818,,,,,,,,,,,,,,,,203.81437789998017,203.82843710004818,205.32733450003434,205.32733450003434,205.34197609999683,205.87725390004925,f,1,0.5422461000271142,None,,,N21,001,2025-03-31_19h11.57.727,416_EXPERIMENT_PSYCHOPY_AU2220019_AU2220225,2024.1.5,None,2025-03-31 19h30.53.818885 +0530,
surprise_lower_blur.jpg,s,15,5,95,5,205.89266210002825,,,,,,,,,,,,,,,,205.87800839997362,205.89266210002825,207.3916753999656,207.3916753999656,207.40813320002053,207.92469060001895,s,1,0.5204719000030309,None,,,N21,001,2025-03-31_19h11.57.727,416_EXPERIMENT_PSYCHOPY_AU2220019_AU2220225,2024.1.5,None,2025-03-31 19h30.53.818885 +0530,
surprise_upper_blur.jpg,s,16,0,96,4,207.93890169996303,,,,,,,,,,,,,,,,207.92528640001547,207.93890169996303,209.43819849996362,209.43819849996362,209.43819849996362,210.1717886000406,None,0,,,210.1876515999902,210.1876515999902,N21,001,2025-03-31_19h11.57.727,416_EXPERIMENT_PSYCHOPY_AU2220019_AU2220225,2024.1.5,None,2025-03-31 19h30.53.818885 +0530,
fear.jpg,f,16,1,97,0,210.1876515999902,,,,,,,,,,,,,,,,210.17232659994625,210.1876515999902,211.68767340003978,211.68767340003978,211.68767340003978,212.18870020005852,f,1,0.48493270005565137,None,,,N21,001,2025-03-31_19h11.57.727,416_EXPERIMENT_PSYCHOPY_AU2220019_AU2220225,2024.1.5,None,2025-03-31 19h30.53.818885 +0530,
surprise_lower_blur.jpg,s,16,2,98,5,212.2030971000204,,,,,,,,,,,,,,,,212.18944490002468,212.2030971000204,213.7014401999768,213.7014401999768,213.72052660002373,214.1019472000189,s,1,0.3872492000227794,None,,,N21,001,2025-03-31_19h11.57.727,416_EXPERIMENT_PSYCHOPY_AU2220019_AU2220225,2024.1.5,None,2025-03-31 19h30.53.818885 +0530,
fear_upper_blur.jpg,f,16,3,99,2,214.12021630001254,,,,,,,,,,,,,,,,214.1027955999598,214.12021630001254,215.6181660000002,215.6181660000002,215.63267269998323,216.0183794000186,f,1,0.3833127999678254,None,,,N21,001,2025-03-31_19h11.57.727,416_EXPERIMENT_PSYCHOPY_AU2220019_AU2220225,2024.1.5,None,2025-03-31 19h30.53.818885 +0530,
fear_lower_blur.jpg,f,16,4,100,3,216.03355489997193,,,,,,,,,,,,,,,,216.0191623000428,216.03355489997193,217.53145280003082,217.53145280003082,217.53145280003082,218.06564669997897,f,1,0.5236215000040829,None,,,N21,001,2025-03-31_19h11.57.727,416_EXPERIMENT_PSYCHOPY_AU2220019_AU2220225,2024.1.5,None,2025-03-31 19h30.53.818885 +0530,
surprise.jpg,s,16,5,101,1,218.08046940003987,,,,,,,,,,,,,,,,218.0665303999558,218.08046940003987,219.58039470005315,219.58039470005315,219.59634289995302,220.04903160000686,s,1,0.4639947999967262,None,,,N21,001,2025-03-31_19h11.57.727,416_EXPERIMENT_PSYCHOPY_AU2220019_AU2220225,2024.1.5,None,2025-03-31 19h30.53.818885 +0530,
surprise_lower_blur.jpg,s,17,0,102,5,220.07844409998506,,,,,,,,,,,,,,,,220.05036710004788,220.07844409998506,221.5605263999896,221.5605263999896,221.59384670003783,222.01387040002737,s,1,0.43598119996022433,None,,,N21,001,2025-03-31_19h11.57.727,416_EXPERIMENT_PSYCHOPY_AU2220019_AU2220225,2024.1.5,None,2025-03-31 19h30.53.818885 +0530,
fear_lower_blur.jpg,f,17,1,103,3,222.04379480006173,,,,,,,,,,,,,,,,222.0146851000609,222.04379480006173,223.52451240003575,223.52451240003575,223.55880250001792,223.97625599999446,f,1,0.45016150001902133,None,,,N21,001,2025-03-31_19h11.57.727,416_EXPERIMENT_PSYCHOPY_AU2220019_AU2220225,2024.1.5,None,2025-03-31 19h30.53.818885 +0530,
surprise_upper_blur.jpg,s,17,2,104,4,223.99062060005963,,,,,,,,,,,,,,,,223.97703099995852,223.99062060005963,225.48893860005774,225.48893860005774,225.48893860005774,225.99046340002678,s,1,0.49569739995058626,None,,,N21,001,2025-03-31_19h11.57.727,416_EXPERIMENT_PSYCHOPY_AU2220019_AU2220225,2024.1.5,None,2025-03-31 19h30.53.818885 +0530,
surprise.jpg,s,17,3,105,1,226.00568649999332,,,,,,,,,,,,,,,,225.99148680001963,226.00568649999332,227.5049524999922,227.5049524999922,227.5223515999969,227.92238670005463,s,1,0.4022906000027433,None,,,N21,001,2025-03-31_19h11.57.727,416_EXPERIMENT_PSYCHOPY_AU2220019_AU2220225,2024.1.5,None,2025-03-31 19h30.53.818885 +0530,
fear_upper_blur.jpg,f,17,4,106,2,227.9376766999485,,,,,,,,,,,,,,,,227.92398479999974,227.9376766999485,229.436877500033,229.436877500033,229.45296340005007,229.82065240002703,s,0,0.37256280006840825,None,,,N21,001,2025-03-31_19h11.57.727,416_EXPERIMENT_PSYCHOPY_AU2220019_AU2220225,2024.1.5,None,2025-03-31 19h30.53.818885 +0530,
fear.jpg,f,17,5,107,0,229.83844500000123,,,,,,,,,,,,,,,,229.8218495999463,229.83844500000123,231.335083700018,231.335083700018,231.35049900005106,231.8185115000233,f,1,0.47632779995910823,None,,,N21,001,2025-03-31_19h11.57.727,416_EXPERIMENT_PSYCHOPY_AU2220019_AU2220225,2024.1.5,None,2025-03-31 19h30.53.818885 +0530,
fear.jpg,f,18,0,108,0,231.83385199995246,,,,,,,,,,,,,,,,231.81934110005386,231.83385199995246,233.33397589996457,233.33397589996457,233.3490014000563,233.69993760006037,s,0,0.3562877000076696,None,,,N21,001,2025-03-31_19h11.57.727,416_EXPERIMENT_PSYCHOPY_AU2220019_AU2220225,2024.1.5,None,2025-03-31 19h30.53.818885 +0530,
surprise.jpg,s,18,1,109,1,233.71476740005892,,,,,,,,,,,,,,,,233.70069289999083,233.71476740005892,235.21327399997972,235.21327399997972,235.21327399997972,235.63258139998652,s,1,0.4079159999964759,None,,,N21,001,2025-03-31_19h11.57.727,416_EXPERIMENT_PSYCHOPY_AU2220019_AU2220225,2024.1.5,None,2025-03-31 19h30.53.818885 +0530,
fear_lower_blur.jpg,f,18,2,110,3,235.64580169995315,,,,,,,,,,,,,,,,235.633318600012,235.64580169995315,237.14484369999263,237.14484369999263,237.16358389996458,237.53064600005746,f,1,0.38391779991798103,None,,,N21,001,2025-03-31_19h11.57.727,416_EXPERIMENT_PSYCHOPY_AU2220019_AU2220225,2024.1.5,None,2025-03-31 19h30.53.818885 +0530,
fear_upper_blur.jpg,f,18,3,111,2,237.54437969997525,,,,,,,,,,,,,,,,237.53173479996622,237.54437969997525,239.0436162999831,239.0436162999831,239.0619502000045,239.77668340003584,f,1,0.7312775000464171,None,,,N21,001,2025-03-31_19h11.57.727,416_EXPERIMENT_PSYCHOPY_AU2220019_AU2220225,2024.1.5,None,2025-03-31 19h30.53.818885 +0530,
surprise_upper_blur.jpg,s,18,4,112,4,239.79542650002986,,,,,,,,,,,,,,,,239.77725479996298,239.79542650002986,241.29418129997794,241.29418129997794,241.3076379999984,241.72523019998334,f,0,0.42623129999265075,None,,,N21,001,2025-03-31_19h11.57.727,416_EXPERIMENT_PSYCHOPY_AU2220019_AU2220225,2024.1.5,None,2025-03-31 19h30.53.818885 +0530,
surprise_lower_blur.jpg,s,18,5,113,5,241.73993559996597,,,,,,,,,,,,,,,,241.72612600005232,241.73993559996597,243.23949139995966,243.23949139995966,243.23949139995966,243.6934607999865,s,1,0.45239310001488775,None,,,N21,001,2025-03-31_19h11.57.727,416_EXPERIMENT_PSYCHOPY_AU2220019_AU2220225,2024.1.5,None,2025-03-31 19h30.53.818885 +0530,
fear.jpg,f,19,0,114,0,243.7092941000592,,,,,,,,,,,,,,,,243.69441100000404,243.7092941000592,245.20379549998324,245.20379549998324,245.22200940002222,245.70567930000834,f,1,0.5002933000214398,None,,,N21,001,2025-03-31_19h11.57.727,416_EXPERIMENT_PSYCHOPY_AU2220019_AU2220225,2024.1.5,None,2025-03-31 19h30.53.818885 +0530,
surprise_upper_blur.jpg,s,19,1,115,4,245.7245262999786,,,,,,,,,,,,,,,,245.7073843999533,245.7245262999786,247.22235629998613,247.22235629998613,247.2346939999843,247.63486300001387,s,1,0.40478939993772656,None,,,N21,001,2025-03-31_19h11.57.727,416_EXPERIMENT_PSYCHOPY_AU2220019_AU2220225,2024.1.5,None,2025-03-31 19h30.53.818885 +0530,
surprise_lower_blur.jpg,s,19,2,116,5,247.65255690005142,,,,,,,,,,,,,,,,247.6357003999874,247.65255690005142,249.13333600002807,249.13333600002807,249.16752380004618,249.6516306999838,s,1,0.5070506000192836,None,,,N21,001,2025-03-31_19h11.57.727,416_EXPERIMENT_PSYCHOPY_AU2220019_AU2220225,2024.1.5,None,2025-03-31 19h30.53.818885 +0530,
surprise.jpg,s,19,3,117,1,249.66594490001444,,,,,,,,,,,,,,,,249.65261250000913,249.66594490001444,251.16503899998497,251.16503899998497,251.16503899998497,251.75075490004383,s,1,0.5817821999080479,None,,,N21,001,2025-03-31_19h11.57.727,416_EXPERIMENT_PSYCHOPY_AU2220019_AU2220225,2024.1.5,None,2025-03-31 19h30.53.818885 +0530,
fear_upper_blur.jpg,f,19,4,118,2,251.76714440004434,,,,,,,,,,,,,,,,251.75189419998787,251.76714440004434,253.26269779994618,253.26269779994618,253.27973029995337,253.73169759998564,f,1,0.46668459998909384,None,,,N21,001,2025-03-31_19h11.57.727,416_EXPERIMENT_PSYCHOPY_AU2220019_AU2220225,2024.1.5,None,2025-03-31 19h30.53.818885 +0530,
fear_lower_blur.jpg,f,19,5,119,3,253.74695820000488,,,,,,,,,,,,,,,,253.73267759999726,253.74695820000488,255.245568000013,255.245568000013,255.2611043000361,255.66083639999852,f,1,0.4057682000566274,None,,,N21,001,2025-03-31_19h11.57.727,416_EXPERIMENT_PSYCHOPY_AU2220019_AU2220225,2024.1.5,None,2025-03-31 19h30.53.818885 +0530,
