stimulus_image,correct_response,loop.thisRepN,loop.thisTrialN,loop.thisN,loop.thisIndex,thisRow.t,notes,guide.started,instructions.started,ins_resp.started,guide.stopped,ins_resp.keys,ins_resp.rt,ins_resp.duration,guide_2.started,ins_resp_2.started,instructions_2.started,guide_2.stopped,ins_resp_2.keys,ins_resp_2.rt,ins_resp_2.duration,trial.started,fixation.started,image.started,key_resp.started,fixation.stopped,trial.stopped,key_resp.keys,key_resp.corr,key_resp.rt,key_resp.duration,image.stopped,key_resp.stopped,participant,session,date,expName,psychopyVersion,frameRate,expStart,
,,,,,,,,0.005366099998354912,0.019342000014148653,0.019342000014148653,22.903313899994828,space,22.863353400025517,None,,,,,,,,,,,,,,,,,,,,N24,001,2025-03-31_19h38.28.224,416_EXPERIMENT_PSYCHOPY_AU2220019_AU2220225,2024.1.5,None,2025-03-31 19h38.53.228640 +0530,
,,,,,,,,,,,,,,,22.903544300002977,22.9120178000303,22.9120178000303,28.77486270002555,space,5.85671129997354,None,,,,,,,,,,,,,N24,001,2025-03-31_19h38.28.224,416_EXPERIMENT_PSYCHOPY_AU2220019_AU2220225,2024.1.5,None,2025-03-31 19h38.53.228640 +0530,
fear_upper_blur.jpg,f,0,0,0,2,28.795321200042963,,,,,,,,,,,,,,,,28.78259820002131,28.795321200042963,30.31842890009284,30.31842890009284,30.335887500084937,30.791909700026736,f,1,0.4659871000330895,None,,,N24,001,2025-03-31_19h38.28.224,416_EXPERIMENT_PSYCHOPY_AU2220019_AU2220225,2024.1.5,None,2025-03-31 19h38.53.228640 +0530,
fear.jpg,f,0,1,1,0,30.80946280003991,,,,,,,,,,,,,,,,30.79351820005104,30.80946280003991,32.30437999998685,32.30437999998685,32.32178630004637,32.836938100052066,f,1,0.519245499977842,None,,,N24,001,2025-03-31_19h38.28.224,416_EXPERIMENT_PSYCHOPY_AU2220019_AU2220225,2024.1.5,None,2025-03-31 19h38.53.228640 +0530,
surprise_lower_blur.jpg,s,0,2,2,5,32.852850100025535,,,,,,,,,,,,,,,,32.83784769999329,32.852850100025535,34.35225170000922,34.35225170000922,34.368752800044604,34.8022578000091,s,1,0.4479423000011593,None,,,N24,001,2025-03-31_19h38.28.224,416_EXPERIMENT_PSYCHOPY_AU2220019_AU2220225,2024.1.5,None,2025-03-31 19h38.53.228640 +0530,
fear_lower_blur.jpg,f,0,3,3,3,34.81956430000719,,,,,,,,,,,,,,,,34.80387220007833,34.81956430000719,36.3160147999879,36.3160147999879,36.331054700072855,36.68454450007994,f,1,0.36668289999943227,None,,,N24,001,2025-03-31_19h38.28.224,416_EXPERIMENT_PSYCHOPY_AU2220019_AU2220225,2024.1.5,None,2025-03-31 19h38.53.228640 +0530,
surprise.jpg,s,0,4,4,1,36.70288360002451,,,,,,,,,,,,,,,,36.68552290007938,36.70288360002451,38.19807280006353,38.19807280006353,38.21541020006407,38.59895210003015,s,1,0.3966469999868423,None,,,N24,001,2025-03-31_19h38.28.224,416_EXPERIMENT_PSYCHOPY_AU2220019_AU2220225,2024.1.5,None,2025-03-31 19h38.53.228640 +0530,
surprise_upper_blur.jpg,s,0,5,5,4,38.618079900043085,,,,,,,,,,,,,,,,38.6001020000549,38.618079900043085,40.112704100087285,40.112704100087285,40.12826740008313,40.496025900007226,f,0,0.373642300022766,None,,,N24,001,2025-03-31_19h38.28.224,416_EXPERIMENT_PSYCHOPY_AU2220019_AU2220225,2024.1.5,None,2025-03-31 19h38.53.228640 +0530,
surprise.jpg,s,1,0,6,1,40.514303900068626,,,,,,,,,,,,,,,,40.496811900055036,40.514303900068626,42.011766600073315,42.011766600073315,42.0266108000651,42.479744700016454,s,1,0.4532417000737041,None,,,N24,001,2025-03-31_19h38.28.224,416_EXPERIMENT_PSYCHOPY_AU2220019_AU2220225,2024.1.5,None,2025-03-31 19h38.53.228640 +0530,
fear_lower_blur.jpg,f,1,1,7,3,42.50699160003569,,,,,,,,,,,,,,,,42.48066130001098,42.50699160003569,43.9922496000072,43.9922496000072,44.008069200091995,44.428502900060266,s,0,0.426198200089857,None,,,N24,001,2025-03-31_19h38.28.224,416_EXPERIMENT_PSYCHOPY_AU2220019_AU2220225,2024.1.5,None,2025-03-31 19h38.53.228640 +0530,
fear_upper_blur.jpg,f,1,2,8,2,44.44172990007792,,,,,,,,,,,,,,,,44.42911250004545,44.44172990007792,45.93979540001601,45.93979540001601,45.93979540001601,46.30831550003495,f,1,0.36353879992384464,None,,,N24,001,2025-03-31_19h38.28.224,416_EXPERIMENT_PSYCHOPY_AU2220019_AU2220225,2024.1.5,None,2025-03-31 19h38.53.228640 +0530,
surprise_upper_blur.jpg,s,1,3,9,4,46.325869300053455,,,,,,,,,,,,,,,,46.3097200000193,46.325869300053455,47.8213844000129,47.8213844000129,47.83796280005481,48.158855300047435,s,1,0.32920959999319166,None,,,N24,001,2025-03-31_19h38.28.224,416_EXPERIMENT_PSYCHOPY_AU2220019_AU2220225,2024.1.5,None,2025-03-31 19h38.53.228640 +0530,
fear.jpg,f,1,4,10,0,48.174497300060466,,,,,,,,,,,,,,,,48.159806100069545,48.174497300060466,49.66939860000275,49.66939860000275,49.68616590008605,49.903465699986555,f,1,0.2261210000142455,None,,,N24,001,2025-03-31_19h38.28.224,416_EXPERIMENT_PSYCHOPY_AU2220019_AU2220225,2024.1.5,None,2025-03-31 19h38.53.228640 +0530,
surprise_lower_blur.jpg,s,1,5,11,5,49.91917440004181,,,,,,,,,,,,,,,,49.90409950003959,49.91917440004181,51.420425400021486,51.420425400021486,51.420425400021486,51.75370140001178,s,1,0.3181376999709755,None,,,N24,001,2025-03-31_19h38.28.224,416_EXPERIMENT_PSYCHOPY_AU2220019_AU2220225,2024.1.5,None,2025-03-31 19h38.53.228640 +0530,
surprise_lower_blur.jpg,s,2,0,12,5,51.770886500016786,,,,,,,,,,,,,,,,51.755158200045116,51.770886500016786,53.2664087000303,53.2664087000303,53.28517630009446,53.71800069999881,s,1,0.44483220006804913,None,,,N24,001,2025-03-31_19h38.28.224,416_EXPERIMENT_PSYCHOPY_AU2220019_AU2220225,2024.1.5,None,2025-03-31 19h38.53.228640 +0530,
fear_lower_blur.jpg,f,2,1,13,3,53.73061760002747,,,,,,,,,,,,,,,,53.71855940006208,53.73061760002747,55.23064249998424,55.23064249998424,55.23064249998424,55.66499840002507,f,1,0.4324827999807894,None,,,N24,001,2025-03-31_19h38.28.224,416_EXPERIMENT_PSYCHOPY_AU2220019_AU2220225,2024.1.5,None,2025-03-31 19h38.53.228640 +0530,
surprise.jpg,s,2,2,14,1,55.683422500034794,,,,,,,,,,,,,,,,55.665735400049016,55.683422500034794,57.16214690008201,57.16214690008201,57.194705400033854,57.512278000009246,s,1,0.34552490001078695,None,,,N24,001,2025-03-31_19h38.28.224,416_EXPERIMENT_PSYCHOPY_AU2220019_AU2220225,2024.1.5,None,2025-03-31 19h38.53.228640 +0530,
fear.jpg,f,2,3,15,0,57.528119800030254,,,,,,,,,,,,,,,,57.51313380000647,57.528119800030254,59.026735500083305,59.026735500083305,59.026735500083305,59.58023960003629,f,1,0.5520756000187248,None,,,N24,001,2025-03-31_19h38.28.224,416_EXPERIMENT_PSYCHOPY_AU2220019_AU2220225,2024.1.5,None,2025-03-31 19h38.53.228640 +0530,
surprise_upper_blur.jpg,s,2,4,16,4,59.596161400084384,,,,,,,,,,,,,,,,59.58136340009514,59.596161400084384,61.091539600049146,61.091539600049146,61.091539600049146,61.44271860003937,s,1,0.3337567000417039,None,,,N24,001,2025-03-31_19h38.28.224,416_EXPERIMENT_PSYCHOPY_AU2220019_AU2220225,2024.1.5,None,2025-03-31 19h38.53.228640 +0530,
fear_upper_blur.jpg,f,2,5,17,2,61.45925130008254,,,,,,,,,,,,,,,,61.44367670000065,61.45925130008254,62.95706410007551,62.95706410007551,62.97491450002417,63.374078200082295,f,1,0.4044480000156909,None,,,N24,001,2025-03-31_19h38.28.224,416_EXPERIMENT_PSYCHOPY_AU2220019_AU2220225,2024.1.5,None,2025-03-31 19h38.53.228640 +0530,
fear_upper_blur.jpg,f,3,0,18,2,63.3891614000313,,,,,,,,,,,,,,,,63.37482180004008,63.3891614000313,64.88842060009483,64.88842060009483,64.88842060009483,65.40774090006016,s,0,0.5173311999533325,None,,,N24,001,2025-03-31_19h38.28.224,416_EXPERIMENT_PSYCHOPY_AU2220019_AU2220225,2024.1.5,None,2025-03-31 19h38.53.228640 +0530,
surprise.jpg,s,3,1,19,1,65.43609440000728,,,,,,,,,,,,,,,,65.4083501000423,65.43609440000728,66.92041260004044,66.92041260004044,66.93638379999902,67.65379820007365,None,0,,,67.66924910002854,67.66924910002854,N24,001,2025-03-31_19h38.28.224,416_EXPERIMENT_PSYCHOPY_AU2220019_AU2220225,2024.1.5,None,2025-03-31 19h38.53.228640 +0530,
fear.jpg,f,3,2,20,0,67.66924910002854,,,,,,,,,,,,,,,,67.65453609998804,67.66924910002854,69.16652950004209,69.16652950004209,69.1845205000136,69.58777490002103,f,1,0.4079878000775352,None,,,N24,001,2025-03-31_19h38.28.224,416_EXPERIMENT_PSYCHOPY_AU2220019_AU2220225,2024.1.5,None,2025-03-31 19h38.53.228640 +0530,
fear_lower_blur.jpg,f,3,3,21,3,69.60354370006826,,,,,,,,,,,,,,,,69.58889380004257,69.60354370006826,71.09959110000636,71.09959110000636,71.11731960007455,71.50027299998328,f,1,0.39584640006069094,None,,,N24,001,2025-03-31_19h38.28.224,416_EXPERIMENT_PSYCHOPY_AU2220019_AU2220225,2024.1.5,None,2025-03-31 19h38.53.228640 +0530,
surprise_upper_blur.jpg,s,3,4,22,4,71.51820880000014,,,,,,,,,,,,,,,,71.50164949998725,71.51820880000014,73.01455950003583,73.01455950003583,73.02879770006984,73.38251949998084,s,1,0.366543099982664,None,,,N24,001,2025-03-31_19h38.28.224,416_EXPERIMENT_PSYCHOPY_AU2220019_AU2220225,2024.1.5,None,2025-03-31 19h38.53.228640 +0530,
surprise_lower_blur.jpg,s,3,5,23,5,73.39747080008965,,,,,,,,,,,,,,,,73.383662700071,73.39747080008965,74.89517899998464,74.89517899998464,74.91123219998553,75.46260120009538,s,1,0.5590942000271752,None,,,N24,001,2025-03-31_19h38.28.224,416_EXPERIMENT_PSYCHOPY_AU2220019_AU2220225,2024.1.5,None,2025-03-31 19h38.53.228640 +0530,
fear_lower_blur.jpg,f,4,0,24,3,75.47873239999171,,,,,,,,,,,,,,,,75.46424180001486,75.47873239999171,76.97589090000838,76.97589090000838,76.99321510002483,77.32763780001551,s,0,0.3501832999754697,None,,,N24,001,2025-03-31_19h38.28.224,416_EXPERIMENT_PSYCHOPY_AU2220019_AU2220225,2024.1.5,None,2025-03-31 19h38.53.228640 +0530,
fear_upper_blur.jpg,f,4,1,25,2,77.34355019999202,,,,,,,,,,,,,,,,77.32851100002881,77.34355019999202,78.84110449999571,78.84110449999571,78.85699920007028,79.2429143000627,f,1,0.39258370001334697,None,,,N24,001,2025-03-31_19h38.28.224,416_EXPERIMENT_PSYCHOPY_AU2220019_AU2220225,2024.1.5,None,2025-03-31 19h38.53.228640 +0530,
surprise.jpg,s,4,2,26,1,79.25831850001123,,,,,,,,,,,,,,,,79.24393610004336,79.25831850001123,80.75518259999808,80.75518259999808,80.75518259999808,81.12251630006358,s,1,0.35542339994572103,None,,,N24,001,2025-03-31_19h38.28.224,416_EXPERIMENT_PSYCHOPY_AU2220019_AU2220225,2024.1.5,None,2025-03-31 19h38.53.228640 +0530,
surprise_upper_blur.jpg,s,4,3,27,4,81.13998370000627,,,,,,,,,,,,,,,,81.1232853999827,81.13998370000627,82.61956550006289,82.61956550006289,82.65382540004794,83.10839870001655,s,1,0.4717385000549257,None,,,N24,001,2025-03-31_19h38.28.224,416_EXPERIMENT_PSYCHOPY_AU2220019_AU2220225,2024.1.5,None,2025-03-31 19h38.53.228640 +0530,
surprise_lower_blur.jpg,s,4,4,28,5,83.12378830008674,,,,,,,,,,,,,,,,83.1097538000904,83.12378830008674,84.61735110008158,84.61735110008158,84.63662320002913,85.03783210006077,s,1,0.4191588999237865,None,,,N24,001,2025-03-31_19h38.28.224,416_EXPERIMENT_PSYCHOPY_AU2220019_AU2220225,2024.1.5,None,2025-03-31 19h38.53.228640 +0530,
fear.jpg,f,4,5,29,0,85.05343379999977,,,,,,,,,,,,,,,,85.0386800999986,85.05343379999977,86.55175980005879,86.55175980005879,86.56868140003644,87.01789760007523,f,1,0.4534079000586644,None,,,N24,001,2025-03-31_19h38.28.224,416_EXPERIMENT_PSYCHOPY_AU2220019_AU2220225,2024.1.5,None,2025-03-31 19h38.53.228640 +0530,
surprise_upper_blur.jpg,s,5,0,30,4,87.03401000006124,,,,,,,,,,,,,,,,87.0185388000682,87.03401000006124,88.53329540009145,88.53329540009145,88.54988030006643,88.91462160006631,s,1,0.3672781999921426,None,,,N24,001,2025-03-31_19h38.28.224,416_EXPERIMENT_PSYCHOPY_AU2220019_AU2220225,2024.1.5,None,2025-03-31 19h38.53.228640 +0530,
fear_lower_blur.jpg,f,5,1,31,3,88.93106169998646,,,,,,,,,,,,,,,,88.91536800004542,88.93106169998646,90.42991559999064,90.42991559999064,90.44643140002154,90.94609560002573,s,0,0.508304699906148,None,,,N24,001,2025-03-31_19h38.28.224,416_EXPERIMENT_PSYCHOPY_AU2220019_AU2220225,2024.1.5,None,2025-03-31 19h38.53.228640 +0530,
fear_upper_blur.jpg,f,5,2,32,2,90.96479860006366,,,,,,,,,,,,,,,,90.94719660002738,90.96479860006366,92.46719540003687,92.46719540003687,92.4779102000175,92.81187480001245,s,0,0.3385726000415161,None,,,N24,001,2025-03-31_19h38.28.224,416_EXPERIMENT_PSYCHOPY_AU2220019_AU2220225,2024.1.5,None,2025-03-31 19h38.53.228640 +0530,
surprise_lower_blur.jpg,s,5,3,33,5,92.82798260007985,,,,,,,,,,,,,,,,92.81243759999052,92.82798260007985,94.32754860003479,94.32754860003479,94.34297270001844,94.6937180000823,s,1,0.3589379000477493,None,,,N24,001,2025-03-31_19h38.28.224,416_EXPERIMENT_PSYCHOPY_AU2220019_AU2220225,2024.1.5,None,2025-03-31 19h38.53.228640 +0530,
surprise.jpg,s,5,4,34,1,94.71040440001525,,,,,,,,,,,,,,,,94.6944921000395,94.71040440001525,96.20644139999058,96.20644139999058,96.22507719998248,96.64073740004096,s,1,0.42334089998621494,None,,,N24,001,2025-03-31_19h38.28.224,416_EXPERIMENT_PSYCHOPY_AU2220019_AU2220225,2024.1.5,None,2025-03-31 19h38.53.228640 +0530,
fear.jpg,f,5,5,35,0,96.65903680003248,,,,,,,,,,,,,,,,96.64159460004885,96.65903680003248,98.15628690004814,98.15628690004814,98.17154040001333,98.5565537000075,f,1,0.3901231000199914,None,,,N24,001,2025-03-31_19h38.28.224,416_EXPERIMENT_PSYCHOPY_AU2220019_AU2220225,2024.1.5,None,2025-03-31 19h38.53.228640 +0530,
surprise_upper_blur.jpg,s,6,0,36,4,98.5711222999962,,,,,,,,,,,,,,,,98.55720989999827,98.5711222999962,100.07025280001108,100.07025280001108,100.07025280001108,100.48995840002317,s,1,0.3992652000160888,None,,,N24,001,2025-03-31_19h38.28.224,416_EXPERIMENT_PSYCHOPY_AU2220019_AU2220225,2024.1.5,None,2025-03-31 19h38.53.228640 +0530,
surprise.jpg,s,6,1,37,1,100.50640740001108,,,,,,,,,,,,,,,,100.49190050002653,100.50640740001108,102.00181970000267,102.00181970000267,102.01854409999214,102.50197600002866,s,1,0.4896555000450462,None,,,N24,001,2025-03-31_19h38.28.224,416_EXPERIMENT_PSYCHOPY_AU2220019_AU2220225,2024.1.5,None,2025-03-31 19h38.53.228640 +0530,
fear_lower_blur.jpg,f,6,2,38,3,102.51806510007009,,,,,,,,,,,,,,,,102.50268989999313,102.51806510007009,104.00032360001933,104.00032360001933,104.03237460006494,104.46731830004137,f,1,0.45877410005778074,None,,,N24,001,2025-03-31_19h38.28.224,416_EXPERIMENT_PSYCHOPY_AU2220019_AU2220225,2024.1.5,None,2025-03-31 19h38.53.228640 +0530,
fear_upper_blur.jpg,f,6,3,39,2,104.4813936999999,,,,,,,,,,,,,,,,104.46790040004998,104.4813936999999,105.96384460001718,105.96384460001718,105.98286940006074,106.3518774000695,s,0,0.37823339994065464,None,,,N24,001,2025-03-31_19h38.28.224,416_EXPERIMENT_PSYCHOPY_AU2220019_AU2220225,2024.1.5,None,2025-03-31 19h38.53.228640 +0530,
fear.jpg,f,6,4,40,0,106.37142620002851,,,,,,,,,,,,,,,,106.35363210004289,106.37142620002851,107.8639819000382,107.8639819000382,107.87966930004768,108.2497607000405,s,0,0.36815150000620633,None,,,N24,001,2025-03-31_19h38.28.224,416_EXPERIMENT_PSYCHOPY_AU2220019_AU2220225,2024.1.5,None,2025-03-31 19h38.53.228640 +0530,
surprise_lower_blur.jpg,s,6,5,41,5,108.26767420000397,,,,,,,,,,,,,,,,108.25080230005551,108.26767420000397,109.75923090009019,109.75923090009019,109.77776409999933,110.29509660007898,s,1,0.5286413000430912,None,,,N24,001,2025-03-31_19h38.28.224,416_EXPERIMENT_PSYCHOPY_AU2220019_AU2220225,2024.1.5,None,2025-03-31 19h38.53.228640 +0530,
surprise_upper_blur.jpg,s,7,0,42,4,110.31119969999418,,,,,,,,,,,,,,,,110.29596590006258,110.31119969999418,111.81035170005634,111.81035170005634,111.82569670001976,112.3415581000736,s,1,0.52027870004531,None,,,N24,001,2025-03-31_19h38.28.224,416_EXPERIMENT_PSYCHOPY_AU2220019_AU2220225,2024.1.5,None,2025-03-31 19h38.53.228640 +0530,
surprise.jpg,s,7,1,43,1,112.35705140000209,,,,,,,,,,,,,,,,112.34231209999416,112.35705140000209,113.85628830001224,113.85628830001224,113.85628830001224,114.29098480008543,s,1,0.4250130000291392,None,,,N24,001,2025-03-31_19h38.28.224,416_EXPERIMENT_PSYCHOPY_AU2220019_AU2220225,2024.1.5,None,2025-03-31 19h38.53.228640 +0530,
fear_lower_blur.jpg,f,7,2,44,3,114.30831390002277,,,,,,,,,,,,,,,,114.29185710009187,114.30831390002277,115.80613140005153,115.80613140005153,115.82103900006041,116.24186609999742,f,1,0.4324126000283286,None,,,N24,001,2025-03-31_19h38.28.224,416_EXPERIMENT_PSYCHOPY_AU2220019_AU2220225,2024.1.5,None,2025-03-31 19h38.53.228640 +0530,
surprise_lower_blur.jpg,s,7,3,45,5,116.25770920002833,,,,,,,,,,,,,,,,116.24346100003459,116.25770920002833,117.75297520007007,117.75297520007007,117.76887999998871,118.13815320003778,s,1,0.3740533000091091,None,,,N24,001,2025-03-31_19h38.28.224,416_EXPERIMENT_PSYCHOPY_AU2220019_AU2220225,2024.1.5,None,2025-03-31 19h38.53.228640 +0530,
fear_upper_blur.jpg,f,7,4,46,2,118.16617490001954,,,,,,,,,,,,,,,,118.13908240001183,118.16617490001954,119.65339840005618,119.65339840005618,119.66700470005162,120.01911670004483,f,1,0.35885109996888787,None,,,N24,001,2025-03-31_19h38.28.224,416_EXPERIMENT_PSYCHOPY_AU2220019_AU2220225,2024.1.5,None,2025-03-31 19h38.53.228640 +0530,
fear.jpg,f,7,5,47,0,120.03289100003894,,,,,,,,,,,,,,,,120.01972570002545,120.03289100003894,121.53263260005042,121.53263260005042,121.53263260005042,121.91768469999079,f,1,0.38213809998705983,None,,,N24,001,2025-03-31_19h38.28.224,416_EXPERIMENT_PSYCHOPY_AU2220019_AU2220225,2024.1.5,None,2025-03-31 19h38.53.228640 +0530,
surprise_upper_blur.jpg,s,8,0,48,4,121.94577140000183,,,,,,,,,,,,,,,,121.91845520003699,121.94577140000183,123.43106580001768,123.43106580001768,123.4467156000901,124.00071420008317,s,1,0.5504128999309614,None,,,N24,001,2025-03-31_19h38.28.224,416_EXPERIMENT_PSYCHOPY_AU2220019_AU2220225,2024.1.5,None,2025-03-31 19h38.53.228640 +0530,
surprise_lower_blur.jpg,s,8,1,49,5,124.01670180005021,,,,,,,,,,,,,,,,124.00218559999485,124.01670180005021,125.51186490000691,125.51186490000691,125.53052700008266,125.99846230004914,s,1,0.48529049998614937,None,,,N24,001,2025-03-31_19h38.28.224,416_EXPERIMENT_PSYCHOPY_AU2220019_AU2220225,2024.1.5,None,2025-03-31 19h38.53.228640 +0530,
fear_upper_blur.jpg,f,8,2,50,2,126.0259729999816,,,,,,,,,,,,,,,,125.99959320004564,126.0259729999816,127.51085750001948,127.51085750001948,127.52610640006606,127.92674290004652,f,1,0.4024115999927744,None,,,N24,001,2025-03-31_19h38.28.224,416_EXPERIMENT_PSYCHOPY_AU2220019_AU2220225,2024.1.5,None,2025-03-31 19h38.53.228640 +0530,
fear.jpg,f,8,3,51,0,127.94361429999117,,,,,,,,,,,,,,,,127.92761290003546,127.94361429999117,129.42429970006924,129.42429970006924,129.4588478000369,129.81106089998502,f,1,0.3700794999022037,None,,,N24,001,2025-03-31_19h38.28.224,416_EXPERIMENT_PSYCHOPY_AU2220019_AU2220225,2024.1.5,None,2025-03-31 19h38.53.228640 +0530,
fear_lower_blur.jpg,f,8,4,52,3,129.82458260003477,,,,,,,,,,,,,,,,129.81232320005074,129.82458260003477,131.3244257000042,131.3244257000042,131.3398188999854,131.72391050006263,f,1,0.39579340000636876,None,,,N24,001,2025-03-31_19h38.28.224,416_EXPERIMENT_PSYCHOPY_AU2220019_AU2220225,2024.1.5,None,2025-03-31 19h38.53.228640 +0530,
surprise.jpg,s,8,5,53,1,131.74075510003604,,,,,,,,,,,,,,,,131.72491350001656,131.74075510003604,133.24011570005678,133.24011570005678,133.25500780006405,133.62039350008126,s,1,0.3769699999829754,None,,,N24,001,2025-03-31_19h38.28.224,416_EXPERIMENT_PSYCHOPY_AU2220019_AU2220225,2024.1.5,None,2025-03-31 19h38.53.228640 +0530,
fear.jpg,f,9,0,54,0,133.63738430000376,,,,,,,,,,,,,,,,133.6209336000029,133.63738430000376,135.13837480009533,135.13837480009533,135.1525544000324,135.41956509999,f,1,0.2760843000141904,None,,,N24,001,2025-03-31_19h38.28.224,416_EXPERIMENT_PSYCHOPY_AU2220019_AU2220225,2024.1.5,None,2025-03-31 19h38.53.228640 +0530,
fear_upper_blur.jpg,f,9,1,55,2,135.43636520009022,,,,,,,,,,,,,,,,135.42046940000728,135.43636520009022,136.93574149999768,136.93574149999768,136.95168530009687,137.2846131999977,f,1,0.33916580001823604,None,,,N24,001,2025-03-31_19h38.28.224,416_EXPERIMENT_PSYCHOPY_AU2220019_AU2220225,2024.1.5,None,2025-03-31 19h38.53.228640 +0530,
surprise.jpg,s,9,2,56,1,137.30215700005647,,,,,,,,,,,,,,,,137.285278400057,137.30215700005647,138.80149520002306,138.80149520002306,138.81531530001666,139.1495420000283,f,0,0.3348532000090927,None,,,N24,001,2025-03-31_19h38.28.224,416_EXPERIMENT_PSYCHOPY_AU2220019_AU2220225,2024.1.5,None,2025-03-31 19h38.53.228640 +0530,
fear_lower_blur.jpg,f,9,3,57,3,139.16645490005612,,,,,,,,,,,,,,,,139.15047980006784,139.16645490005612,140.66336850007065,140.66336850007065,140.67958100000396,141.0800776000833,f,1,0.4075693000340834,None,,,N24,001,2025-03-31_19h38.28.224,416_EXPERIMENT_PSYCHOPY_AU2220019_AU2220225,2024.1.5,None,2025-03-31 19h38.53.228640 +0530,
surprise_lower_blur.jpg,s,9,4,58,5,141.09745140001178,,,,,,,,,,,,,,,,141.08075219998136,141.09745140001178,142.59717730002012,142.59717730002012,142.61312910006382,143.02937590004876,f,0,0.4259310000343248,None,,,N24,001,2025-03-31_19h38.28.224,416_EXPERIMENT_PSYCHOPY_AU2220019_AU2220225,2024.1.5,None,2025-03-31 19h38.53.228640 +0530,
surprise_upper_blur.jpg,s,9,5,59,4,143.0439834999852,,,,,,,,,,,,,,,,143.03012730006594,143.0439834999852,144.54266969999298,144.54266969999298,144.54266969999298,145.1437000000151,s,1,0.5987306000897661,None,,,N24,001,2025-03-31_19h38.28.224,416_EXPERIMENT_PSYCHOPY_AU2220019_AU2220225,2024.1.5,None,2025-03-31 19h38.53.228640 +0530,
fear_upper_blur.jpg,f,10,0,60,2,145.1605726000853,,,,,,,,,,,,,,,,145.1446437999839,145.1605726000853,146.6585452000145,146.6585452000145,146.6753554000752,147.24039990000892,f,1,0.5807997999945655,None,,,N24,001,2025-03-31_19h38.28.224,416_EXPERIMENT_PSYCHOPY_AU2220019_AU2220225,2024.1.5,None,2025-03-31 19h38.53.228640 +0530,
surprise.jpg,s,10,1,61,1,147.25871590001043,,,,,,,,,,,,,,,,147.2410662000766,147.25871590001043,148.73898660007399,148.73898660007399,148.7707201000303,149.13822550000623,s,1,0.3913990999571979,None,,,N24,001,2025-03-31_19h38.28.224,416_EXPERIMENT_PSYCHOPY_AU2220019_AU2220225,2024.1.5,None,2025-03-31 19h38.53.228640 +0530,
surprise_upper_blur.jpg,s,10,2,62,4,149.15724239998963,,,,,,,,,,,,,,,,149.13883690000512,149.15724239998963,150.6366943999892,150.6366943999892,150.6699784999946,151.1052230000496,s,1,0.4562127999961376,None,,,N24,001,2025-03-31_19h38.28.224,416_EXPERIMENT_PSYCHOPY_AU2220019_AU2220225,2024.1.5,None,2025-03-31 19h38.53.228640 +0530,
surprise_lower_blur.jpg,s,10,3,63,5,151.12260790006258,,,,,,,,,,,,,,,,151.10613620001823,151.12260790006258,152.62044840003364,152.62044840003364,152.6343530000886,153.06888790009543,s,1,0.4425359000451863,None,,,N24,001,2025-03-31_19h38.28.224,416_EXPERIMENT_PSYCHOPY_AU2220019_AU2220225,2024.1.5,None,2025-03-31 19h38.53.228640 +0530,
fear.jpg,f,10,4,64,0,153.08551610005088,,,,,,,,,,,,,,,,153.06968580000103,153.08551610005088,154.5841078000376,154.5841078000376,154.60005580005236,154.96875510003883,s,0,0.37085019994992763,None,,,N24,001,2025-03-31_19h38.28.224,416_EXPERIMENT_PSYCHOPY_AU2220019_AU2220225,2024.1.5,None,2025-03-31 19h38.53.228640 +0530,
fear_lower_blur.jpg,f,10,5,65,3,154.98237770004198,,,,,,,,,,,,,,,,154.9695011000149,154.98237770004198,156.48057750007138,156.48057750007138,156.48057750007138,156.86687830009032,f,1,0.3802674999460578,None,,,N24,001,2025-03-31_19h38.28.224,416_EXPERIMENT_PSYCHOPY_AU2220019_AU2220225,2024.1.5,None,2025-03-31 19h38.53.228640 +0530,
surprise_upper_blur.jpg,s,11,0,66,4,156.88037080003414,,,,,,,,,,,,,,,,156.8675208000932,156.88037080003414,158.38091830001213,158.38091830001213,158.38091830001213,158.78041450004093,s,1,0.38526000001002103,None,,,N24,001,2025-03-31_19h38.28.224,416_EXPERIMENT_PSYCHOPY_AU2220019_AU2220225,2024.1.5,None,2025-03-31 19h38.53.228640 +0530,
fear_lower_blur.jpg,f,11,1,67,3,158.79601230006665,,,,,,,,,,,,,,,,158.78120379999746,158.79601230006665,160.2770167000126,160.2770167000126,160.31339620007202,160.61361420003232,f,1,0.3299863999709487,None,,,N24,001,2025-03-31_19h38.28.224,416_EXPERIMENT_PSYCHOPY_AU2220019_AU2220225,2024.1.5,None,2025-03-31 19h38.53.228640 +0530,
surprise.jpg,s,11,2,68,1,160.64222080004402,,,,,,,,,,,,,,,,160.61444160004612,160.64222080004402,162.12819690001197,162.12819690001197,162.1418405000586,162.52738210000098,s,1,0.3855948999989778,None,,,N24,001,2025-03-31_19h38.28.224,416_EXPERIMENT_PSYCHOPY_AU2220019_AU2220225,2024.1.5,None,2025-03-31 19h38.53.228640 +0530,
fear_upper_blur.jpg,f,11,3,69,2,162.54184010007884,,,,,,,,,,,,,,,,162.5280509000877,162.54184010007884,164.03988930000924,164.03988930000924,164.06166110001504,164.42646970006172,f,1,0.3821853999979794,None,,,N24,001,2025-03-31_19h38.28.224,416_EXPERIMENT_PSYCHOPY_AU2220019_AU2220225,2024.1.5,None,2025-03-31 19h38.53.228640 +0530,
surprise_lower_blur.jpg,s,11,4,70,5,164.4391243000282,,,,,,,,,,,,,,,,164.42707940004766,164.4391243000282,165.9390037000412,165.9390037000412,165.9390037000412,166.35675340006128,s,1,0.4153266999637708,None,,,N24,001,2025-03-31_19h38.28.224,416_EXPERIMENT_PSYCHOPY_AU2220019_AU2220225,2024.1.5,None,2025-03-31 19h38.53.228640 +0530,
fear.jpg,f,11,5,71,0,166.37337410007603,,,,,,,,,,,,,,,,166.35789530002512,166.37337410007603,167.86978080007248,167.86978080007248,167.86978080007248,168.25768260005862,f,1,0.38512160000391304,None,,,N24,001,2025-03-31_19h38.28.224,416_EXPERIMENT_PSYCHOPY_AU2220019_AU2220225,2024.1.5,None,2025-03-31 19h38.53.228640 +0530,
fear_upper_blur.jpg,f,12,0,72,2,168.27546630008146,,,,,,,,,,,,,,,,168.25912130007055,168.27546630008146,169.76818440004718,169.76818440004718,169.7867580000311,170.10211169999093,s,0,0.3297824999317527,None,,,N24,001,2025-03-31_19h38.28.224,416_EXPERIMENT_PSYCHOPY_AU2220019_AU2220225,2024.1.5,None,2025-03-31 19h38.53.228640 +0530,
surprise_upper_blur.jpg,s,12,1,73,4,170.1199682999868,,,,,,,,,,,,,,,,170.10356690001208,170.1199682999868,171.59907860006206,171.59907860006206,171.63174800004344,171.91713299998082,f,0,0.3150551998987794,None,,,N24,001,2025-03-31_19h38.28.224,416_EXPERIMENT_PSYCHOPY_AU2220019_AU2220225,2024.1.5,None,2025-03-31 19h38.53.228640 +0530,
fear.jpg,f,12,2,74,0,171.93260519998148,,,,,,,,,,,,,,,,171.91771710000467,171.93260519998148,173.43024750007316,173.43024750007316,173.43024750007316,173.81517850002274,f,1,0.37964169995393604,None,,,N24,001,2025-03-31_19h38.28.224,416_EXPERIMENT_PSYCHOPY_AU2220019_AU2220225,2024.1.5,None,2025-03-31 19h38.53.228640 +0530,
fear_lower_blur.jpg,f,12,3,75,3,173.82936010009144,,,,,,,,,,,,,,,,173.8157566000009,173.82936010009144,175.31428150006104,175.31428150006104,175.3298492000904,175.75049930007663,f,1,0.4161681999685243,None,,,N24,001,2025-03-31_19h38.28.224,416_EXPERIMENT_PSYCHOPY_AU2220019_AU2220225,2024.1.5,None,2025-03-31 19h38.53.228640 +0530,
surprise_lower_blur.jpg,s,12,4,76,5,175.7664506000001,,,,,,,,,,,,,,,,175.75138690008316,175.7664506000001,177.26072960009333,177.26072960009333,177.27873550006188,177.72671240009367,s,1,0.4642875000135973,None,,,N24,001,2025-03-31_19h38.28.224,416_EXPERIMENT_PSYCHOPY_AU2220019_AU2220225,2024.1.5,None,2025-03-31 19h38.53.228640 +0530,
surprise.jpg,s,12,5,77,1,177.74303180002607,,,,,,,,,,,,,,,,177.72729720000643,177.74303180002607,179.2442650999874,179.2442650999874,179.25898110005073,179.71102809999138,s,1,0.4588685999624431,None,,,N24,001,2025-03-31_19h38.28.224,416_EXPERIMENT_PSYCHOPY_AU2220019_AU2220225,2024.1.5,None,2025-03-31 19h38.53.228640 +0530,
surprise_upper_blur.jpg,s,13,0,78,4,179.7254394000629,,,,,,,,,,,,,,,,179.71179169998504,179.7254394000629,181.22278930002358,181.22278930002358,181.2426901999861,181.60922610003036,f,0,0.3804069000761956,None,,,N24,001,2025-03-31_19h38.28.224,416_EXPERIMENT_PSYCHOPY_AU2220019_AU2220225,2024.1.5,None,2025-03-31 19h38.53.228640 +0530,
fear_lower_blur.jpg,f,13,1,79,3,181.623063200037,,,,,,,,,,,,,,,,181.60979290003888,181.623063200037,183.12134920002427,183.12134920002427,183.12134920002427,183.50845219998155,f,1,0.3843417000025511,None,,,N24,001,2025-03-31_19h38.28.224,416_EXPERIMENT_PSYCHOPY_AU2220019_AU2220225,2024.1.5,None,2025-03-31 19h38.53.228640 +0530,
fear_upper_blur.jpg,f,13,2,80,2,183.53861839999445,,,,,,,,,,,,,,,,183.50937300000805,183.53861839999445,185.02021069999319,185.02021069999319,185.05364340008236,185.43855650001206,f,1,0.40695649990811944,None,,,N24,001,2025-03-31_19h38.28.224,416_EXPERIMENT_PSYCHOPY_AU2220019_AU2220225,2024.1.5,None,2025-03-31 19h38.53.228640 +0530,
fear.jpg,f,13,3,81,0,185.4677904000273,,,,,,,,,,,,,,,,185.4394948000554,185.4677904000273,186.95266130007803,186.95266130007803,186.9670890000416,187.3698008999927,f,1,0.41410499997437,None,,,N24,001,2025-03-31_19h38.28.224,416_EXPERIMENT_PSYCHOPY_AU2220019_AU2220225,2024.1.5,None,2025-03-31 19h38.53.228640 +0530,
surprise_lower_blur.jpg,s,13,4,82,5,187.38546660006978,,,,,,,,,,,,,,,,187.37093580001965,187.38546660006978,188.88388940005098,188.88388940005098,188.89985749998596,189.3502958000172,s,1,0.4591092000482604,None,,,N24,001,2025-03-31_19h38.28.224,416_EXPERIMENT_PSYCHOPY_AU2220019_AU2220225,2024.1.5,None,2025-03-31 19h38.53.228640 +0530,
surprise.jpg,s,13,5,83,1,189.3686086999951,,,,,,,,,,,,,,,,189.35122489999048,189.3686086999951,190.8650598000968,190.8650598000968,190.88248510006815,191.33304689999204,s,1,0.45351659995503724,None,,,N24,001,2025-03-31_19h38.28.224,416_EXPERIMENT_PSYCHOPY_AU2220019_AU2220225,2024.1.5,None,2025-03-31 19h38.53.228640 +0530,
fear_upper_blur.jpg,f,14,0,84,2,191.34754800004885,,,,,,,,,,,,,,,,191.3336235000752,191.34754800004885,192.8481982999947,192.8481982999947,192.86080510006286,193.2163321999833,s,0,0.3671181999379769,None,,,N24,001,2025-03-31_19h38.28.224,416_EXPERIMENT_PSYCHOPY_AU2220019_AU2220225,2024.1.5,None,2025-03-31 19h38.53.228640 +0530,
fear.jpg,f,14,1,85,0,193.22908860002644,,,,,,,,,,,,,,,,193.21703820000403,193.22908860002644,194.72738699999172,194.72738699999172,194.72738699999172,195.19300790003035,f,1,0.4554721999447793,None,,,N24,001,2025-03-31_19h38.28.224,416_EXPERIMENT_PSYCHOPY_AU2220019_AU2220225,2024.1.5,None,2025-03-31 19h38.53.228640 +0530,
surprise_lower_blur.jpg,s,14,2,86,5,195.2101797000505,,,,,,,,,,,,,,,,195.1935819000937,195.2101797000505,196.7081848999951,196.7081848999951,196.7238604000304,197.31008130009286,s,1,0.5887682000175118,None,,,N24,001,2025-03-31_19h38.28.224,416_EXPERIMENT_PSYCHOPY_AU2220019_AU2220225,2024.1.5,None,2025-03-31 19h38.53.228640 +0530,
fear_lower_blur.jpg,f,14,3,87,3,197.32387690001633,,,,,,,,,,,,,,,,197.3106972000096,197.32387690001633,198.82317650003824,198.82317650003824,198.82317650003824,199.32307969999965,f,1,0.4878607999999076,None,,,N24,001,2025-03-31_19h38.28.224,416_EXPERIMENT_PSYCHOPY_AU2220019_AU2220225,2024.1.5,None,2025-03-31 19h38.53.228640 +0530,
surprise.jpg,s,14,4,88,1,199.34046710003167,,,,,,,,,,,,,,,,199.32413950003684,199.34046710003167,200.81969899998512,200.81969899998512,200.854211900034,201.2546889000805,f,0,0.4264519000425935,None,,,N24,001,2025-03-31_19h38.28.224,416_EXPERIMENT_PSYCHOPY_AU2220019_AU2220225,2024.1.5,None,2025-03-31 19h38.53.228640 +0530,
surprise_upper_blur.jpg,s,14,5,89,4,201.27238079998642,,,,,,,,,,,,,,,,201.25546320003923,201.27238079998642,202.75360220007133,202.75360220007133,202.78572709998116,203.2731608999893,f,0,0.5109506000299007,None,,,N24,001,2025-03-31_19h38.28.224,416_EXPERIMENT_PSYCHOPY_AU2220019_AU2220225,2024.1.5,None,2025-03-31 19h38.53.228640 +0530,
fear.jpg,f,15,0,90,0,203.28949390002526,,,,,,,,,,,,,,,,203.27446039998904,203.28949390002526,204.7829603999853,204.7829603999853,204.80313690006733,205.31864589999896,f,1,0.52468090003822,None,,,N24,001,2025-03-31_19h38.28.224,416_EXPERIMENT_PSYCHOPY_AU2220019_AU2220225,2024.1.5,None,2025-03-31 19h38.53.228640 +0530,
fear_upper_blur.jpg,f,15,1,91,2,205.33442179998383,,,,,,,,,,,,,,,,205.31926560006104,205.33442179998383,206.83237210009247,206.83237210009247,206.84849890007172,207.40050660003908,s,0,0.5541937999660149,None,,,N24,001,2025-03-31_19h38.28.224,416_EXPERIMENT_PSYCHOPY_AU2220019_AU2220225,2024.1.5,None,2025-03-31 19h38.53.228640 +0530,
fear_lower_blur.jpg,f,15,2,92,3,207.41682690009475,,,,,,,,,,,,,,,,207.40118950000033,207.41682690009475,208.91297770000529,208.91297770000529,208.92960979999043,209.4311854999978,f,1,0.5086890999227762,None,,,N24,001,2025-03-31_19h38.28.224,416_EXPERIMENT_PSYCHOPY_AU2220019_AU2220225,2024.1.5,None,2025-03-31 19h38.53.228640 +0530,
surprise_upper_blur.jpg,s,15,3,93,4,209.4451863000868,,,,,,,,,,,,,,,,209.4318386000814,209.4451863000868,210.9446347000776,210.9446347000776,210.9446347000776,211.56147870002314,s,1,0.6088170000584796,None,,,N24,001,2025-03-31_19h38.28.224,416_EXPERIMENT_PSYCHOPY_AU2220019_AU2220225,2024.1.5,None,2025-03-31 19h38.53.228640 +0530,
surprise_lower_blur.jpg,s,15,4,94,5,211.57606520003174,,,,,,,,,,,,,,,,211.5621691000415,211.57606520003174,213.0748767000623,213.0748767000623,213.0748767000623,213.62692940002307,s,1,0.5364471999928355,None,,,N24,001,2025-03-31_19h38.28.224,416_EXPERIMENT_PSYCHOPY_AU2220019_AU2220225,2024.1.5,None,2025-03-31 19h38.53.228640 +0530,
surprise.jpg,s,15,5,95,1,213.6407394000562,,,,,,,,,,,,,,,,213.62754010001663,213.6407394000562,215.12475560000166,215.12475560000166,215.1399504999863,215.50935320009012,s,1,0.3682738000061363,None,,,N24,001,2025-03-31_19h38.28.224,416_EXPERIMENT_PSYCHOPY_AU2220019_AU2220225,2024.1.5,None,2025-03-31 19h38.53.228640 +0530,
fear_lower_blur.jpg,f,16,0,96,3,215.52402660006192,,,,,,,,,,,,,,,,215.51026700006332,215.52402660006192,217.0229563000612,217.0229563000612,217.0229563000612,217.59065300005022,f,1,0.5530949999811128,None,,,N24,001,2025-03-31_19h38.28.224,416_EXPERIMENT_PSYCHOPY_AU2220019_AU2220225,2024.1.5,None,2025-03-31 19h38.53.228640 +0530,
surprise_upper_blur.jpg,s,16,1,97,4,217.60730010003317,,,,,,,,,,,,,,,,217.59154400008265,217.60730010003317,219.1042150000576,219.1042150000576,219.1042150000576,219.7032691000495,s,1,0.5914891998982057,None,,,N24,001,2025-03-31_19h38.28.224,416_EXPERIMENT_PSYCHOPY_AU2220019_AU2220225,2024.1.5,None,2025-03-31 19h38.53.228640 +0530,
surprise_lower_blur.jpg,s,16,2,98,5,219.72016750008333,,,,,,,,,,,,,,,,219.70444850006606,219.72016750008333,221.2203037000727,221.2203037000727,221.23334410006646,221.71996330004185,s,1,0.49273119994904846,None,,,N24,001,2025-03-31_19h38.28.224,416_EXPERIMENT_PSYCHOPY_AU2220019_AU2220225,2024.1.5,None,2025-03-31 19h38.53.228640 +0530,
fear.jpg,f,16,3,99,0,221.7340841999976,,,,,,,,,,,,,,,,221.7205945000751,221.7340841999976,223.23226960003376,223.23226960003376,223.23226960003376,223.6504023000598,f,1,0.40760900010354817,None,,,N24,001,2025-03-31_19h38.28.224,416_EXPERIMENT_PSYCHOPY_AU2220019_AU2220225,2024.1.5,None,2025-03-31 19h38.53.228640 +0530,
surprise.jpg,s,16,4,100,1,223.66657560004387,,,,,,,,,,,,,,,,223.6515290000243,223.66657560004387,225.16282329999376,225.16282329999376,225.16282329999376,225.54917130002286,s,1,0.3846076999325305,None,,,N24,001,2025-03-31_19h38.28.224,416_EXPERIMENT_PSYCHOPY_AU2220019_AU2220225,2024.1.5,None,2025-03-31 19h38.53.228640 +0530,
fear_upper_blur.jpg,f,16,5,101,2,225.5663200999843,,,,,,,,,,,,,,,,225.55073530005757,225.5663200999843,227.0623859000625,227.0623859000625,227.08017610001843,227.48047660000157,f,1,0.4050959999440238,None,,,N24,001,2025-03-31_19h38.28.224,416_EXPERIMENT_PSYCHOPY_AU2220019_AU2220225,2024.1.5,None,2025-03-31 19h38.53.228640 +0530,
fear_lower_blur.jpg,f,17,0,102,3,227.4955427000532,,,,,,,,,,,,,,,,227.4814809000818,227.4955427000532,228.994357699994,228.994357699994,229.01300140004605,229.52815010002814,f,1,0.5217351999599487,None,,,N24,001,2025-03-31_19h38.28.224,416_EXPERIMENT_PSYCHOPY_AU2220019_AU2220225,2024.1.5,None,2025-03-31 19h38.53.228640 +0530,
surprise_upper_blur.jpg,s,17,1,103,4,229.5440531000495,,,,,,,,,,,,,,,,229.52886940003373,229.5440531000495,231.04482489998918,231.04482489998918,231.05826580000576,231.6263319000136,s,1,0.5798951999749988,None,,,N24,001,2025-03-31_19h38.28.224,416_EXPERIMENT_PSYCHOPY_AU2220019_AU2220225,2024.1.5,None,2025-03-31 19h38.53.228640 +0530,
fear.jpg,f,17,2,104,0,231.64126659999602,,,,,,,,,,,,,,,,231.62735269998666,231.64126659999602,233.14089440007228,233.14089440007228,233.15638010005932,233.60907200002111,f,1,0.46667080000042915,None,,,N24,001,2025-03-31_19h38.28.224,416_EXPERIMENT_PSYCHOPY_AU2220019_AU2220225,2024.1.5,None,2025-03-31 19h38.53.228640 +0530,
fear_upper_blur.jpg,f,17,3,105,2,233.6365633000387,,,,,,,,,,,,,,,,233.61011220002547,233.6365633000387,235.12081470002886,235.12081470002886,235.13672170008067,235.522286200081,f,1,0.38988390006124973,None,,,N24,001,2025-03-31_19h38.28.224,416_EXPERIMENT_PSYCHOPY_AU2220019_AU2220225,2024.1.5,None,2025-03-31 19h38.53.228640 +0530,
surprise_lower_blur.jpg,s,17,4,106,5,235.53924120008014,,,,,,,,,,,,,,,,235.52329720009584,235.53924120008014,237.03597500000615,237.03597500000615,237.053952199989,237.50326130003668,s,1,0.4637132999487221,None,,,N24,001,2025-03-31_19h38.28.224,416_EXPERIMENT_PSYCHOPY_AU2220019_AU2220225,2024.1.5,None,2025-03-31 19h38.53.228640 +0530,
surprise.jpg,s,17,5,107,1,237.51862970006187,,,,,,,,,,,,,,,,237.5041684000753,237.51862970006187,238.9991509000538,238.9991509000538,239.03254450007807,239.48641780007165,s,1,0.4797151000238955,None,,,N24,001,2025-03-31_19h38.28.224,416_EXPERIMENT_PSYCHOPY_AU2220019_AU2220225,2024.1.5,None,2025-03-31 19h38.53.228640 +0530,
fear.jpg,f,18,0,108,0,239.51374970003963,,,,,,,,,,,,,,,,239.48801730002742,239.51374970003963,240.99872979999054,240.99872979999054,241.01448470004834,241.44915240001865,f,1,0.43813739996403456,None,,,N24,001,2025-03-31_19h38.28.224,416_EXPERIMENT_PSYCHOPY_AU2220019_AU2220225,2024.1.5,None,2025-03-31 19h38.53.228640 +0530,
fear_lower_blur.jpg,f,18,1,109,3,241.46616680000443,,,,,,,,,,,,,,,,241.45009719999507,241.46616680000443,242.96290799998678,242.96290799998678,242.98015870002564,243.38011240004562,f,1,0.40726569993421435,None,,,N24,001,2025-03-31_19h38.28.224,416_EXPERIMENT_PSYCHOPY_AU2220019_AU2220225,2024.1.5,None,2025-03-31 19h38.53.228640 +0530,
surprise.jpg,s,18,2,110,1,243.39813930005766,,,,,,,,,,,,,,,,243.38083809998352,243.39813930005766,244.89517510007136,244.89517510007136,244.9100083000958,245.26677800004836,s,1,0.3534672000678256,None,,,N24,001,2025-03-31_19h38.28.224,416_EXPERIMENT_PSYCHOPY_AU2220019_AU2220225,2024.1.5,None,2025-03-31 19h38.53.228640 +0530,
surprise_upper_blur.jpg,s,18,3,111,4,245.28011350007728,,,,,,,,,,,,,,,,245.26751180004794,245.28011350007728,246.77515820006374,246.77515820006374,246.79318330006208,247.16637310001533,s,1,0.37771829997655004,None,,,N24,001,2025-03-31_19h38.28.224,416_EXPERIMENT_PSYCHOPY_AU2220019_AU2220225,2024.1.5,None,2025-03-31 19h38.53.228640 +0530,
fear_upper_blur.jpg,f,18,4,112,2,247.1812994000502,,,,,,,,,,,,,,,,247.16804530005902,247.1812994000502,248.6734790999908,248.6734790999908,248.6933581000194,249.0609334000619,s,0,0.3805453999666497,None,,,N24,001,2025-03-31_19h38.28.224,416_EXPERIMENT_PSYCHOPY_AU2220019_AU2220225,2024.1.5,None,2025-03-31 19h38.53.228640 +0530,
surprise_lower_blur.jpg,s,18,5,113,5,249.07292880001478,,,,,,,,,,,,,,,,249.06151340005454,249.07292880001478,250.57250190002378,250.57250190002378,250.57250190002378,251.02352050004993,s,1,0.4402895999373868,None,,,N24,001,2025-03-31_19h38.28.224,416_EXPERIMENT_PSYCHOPY_AU2220019_AU2220225,2024.1.5,None,2025-03-31 19h38.53.228640 +0530,
fear_lower_blur.jpg,f,19,0,114,3,251.03764300001785,,,,,,,,,,,,,,,,251.02417480002623,251.03764300001785,252.53693250007927,252.53693250007927,252.53693250007927,253.05574189999606,f,1,0.5096945000113919,None,,,N24,001,2025-03-31_19h38.28.224,416_EXPERIMENT_PSYCHOPY_AU2220019_AU2220225,2024.1.5,None,2025-03-31 19h38.53.228640 +0530,
fear_upper_blur.jpg,f,19,1,115,2,253.0698000000557,,,,,,,,,,,,,,,,253.05643980007153,253.0698000000557,254.5678101000376,254.5678101000376,254.5678101000376,255.0041042000521,f,1,0.4199675000272691,None,,,N24,001,2025-03-31_19h38.28.224,416_EXPERIMENT_PSYCHOPY_AU2220019_AU2220225,2024.1.5,None,2025-03-31 19h38.53.228640 +0530,
fear.jpg,f,19,2,116,0,255.02270440000575,,,,,,,,,,,,,,,,255.00538210000377,255.02270440000575,256.51851249998435,256.51851249998435,256.5319208999863,256.9319198000012,f,1,0.405315300100483,None,,,N24,001,2025-03-31_19h38.28.224,416_EXPERIMENT_PSYCHOPY_AU2220019_AU2220225,2024.1.5,None,2025-03-31 19h38.53.228640 +0530,
surprise_lower_blur.jpg,s,19,3,117,5,256.9503848000895,,,,,,,,,,,,,,,,256.93269919999875,256.9503848000895,258.43030390003696,258.43030390003696,258.46415910008363,258.79804020002484,s,1,0.3549673999659717,None,,,N24,001,2025-03-31_19h38.28.224,416_EXPERIMENT_PSYCHOPY_AU2220019_AU2220225,2024.1.5,None,2025-03-31 19h38.53.228640 +0530,
surprise_upper_blur.jpg,s,19,4,118,4,258.8142692000838,,,,,,,,,,,,,,,,258.7989795000758,258.8142692000838,260.2957379000727,260.2957379000727,260.32834060001187,260.58074730006047,f,0,0.2784057999961078,None,,,N24,001,2025-03-31_19h38.28.224,416_EXPERIMENT_PSYCHOPY_AU2220019_AU2220225,2024.1.5,None,2025-03-31 19h38.53.228640 +0530,
surprise.jpg,s,19,5,119,1,260.5953463000478,,,,,,,,,,,,,,,,260.5815977000166,260.5953463000478,262.0951174000511,262.0951174000511,262.0951174000511,262.5298612000188,f,0,0.41878080007154495,None,,,N24,001,2025-03-31_19h38.28.224,416_EXPERIMENT_PSYCHOPY_AU2220019_AU2220225,2024.1.5,None,2025-03-31 19h38.53.228640 +0530,
