stimulus_image,correct_response,thisN,thisTrialN,thisRepN,key_resp.keys,key_resp.corr,key_resp.rt,key_resp.duration,loop.thisRepN,loop.thisTrialN,loop.thisN,loop.thisIndex,thisRow.t,notes,guide.started,instructions.started,ins_resp.started,guide.stopped,ins_resp.keys,ins_resp.rt,ins_resp.duration,guide_2.started,text.started,key_resp_2.started,guide_2.stopped,key_resp_2.keys,key_resp_2.rt,key_resp_2.duration,trial.started,fixation.started,image.started,key_resp.started,fixation.stopped,image.stopped,trial.stopped,loop.key_resp.keys,loop.key_resp.corr,loop.key_resp.rt,loop.key_resp.duration,key_resp.stopped,participant,session,date,expName,psychopyVersion,frameRate,expStart,
,,,,,,,,,,,,,,,0.0034357999993517296,0.008117999999740277,0.008117999999740277,47.6709350000001,space,47.59893860000011,None,,,,,,,,,,,,,,,,,,,,P22,113,2025-04-03_16h10.33.994,416_EXPERIMENT_PSYCHOPY_AU2220019_AU2220225,2024.2.4,59.65355600799084,2025-04-03 16h13.51.148498 +0530,
,,,,,,,,,,,,,,,,,,,,,,47.67103099999986,47.67724229999931,47.67724229999931,51.71795440000005,space,4.036576500000592,None,,,,,,,,,,,,,P22,113,2025-04-03_16h10.33.994,416_EXPERIMENT_PSYCHOPY_AU2220019_AU2220225,2024.2.4,59.65355600799084,2025-04-03 16h13.51.148498 +0530,
fear_upper_blur.jpg,f,0,0,0,f,1,0.6250793999997768,None,0,0,0,2,51.897315700000036,,,,,,,,,,,,,,,,51.86445360000016,51.897315700000036,53.26896439999928,53.26896439999928,53.39847069999996,53.782260699999824,53.90448259999994,f,1,0.6250793999997768,None,,P22,113,2025-04-03_16h10.33.994,416_EXPERIMENT_PSYCHOPY_AU2220019_AU2220225,2024.2.4,59.65355600799084,2025-04-03 16h13.51.148498 +0530,
fear.jpg,f,1,1,0,f,1,0.6088214999999764,None,0,1,1,0,53.94834619999983,,,,,,,,,,,,,,,,53.93893459999981,53.94834619999983,55.41534950000005,55.41534950000005,55.44874249999975,55.914828699999816,56.03373929999998,f,1,0.6088214999999764,None,,P22,113,2025-04-03_16h10.33.994,416_EXPERIMENT_PSYCHOPY_AU2220019_AU2220225,2024.2.4,59.65355600799084,2025-04-03 16h13.51.148498 +0530,
fear_lower_blur.jpg,f,2,2,0,f,1,0.4858905999999479,None,0,2,2,3,56.052795999999944,,,,,,,,,,,,,,,,56.04769109999961,56.052795999999944,57.54920529999981,57.54920529999981,57.565514599999915,58.0486379999993,58.05113919999985,f,1,0.4858905999999479,None,,P22,113,2025-04-03_16h10.33.994,416_EXPERIMENT_PSYCHOPY_AU2220019_AU2220225,2024.2.4,59.65355600799084,2025-04-03 16h13.51.148498 +0530,
surprise.jpg,s,3,3,0,f,0,0.4859625999997661,None,0,3,3,1,58.07127820000005,,,,,,,,,,,,,,,,58.06586139999945,58.07127820000005,59.565585599999395,59.565585599999395,59.58263439999973,60.06496309999966,60.06759710000006,f,0,0.4859625999997661,None,,P22,113,2025-04-03_16h10.33.994,416_EXPERIMENT_PSYCHOPY_AU2220019_AU2220225,2024.2.4,59.65355600799084,2025-04-03 16h13.51.148498 +0530,
surprise_lower_blur.jpg,s,4,4,0,f,0,0.6460012999996252,None,0,4,4,5,60.08579229999941,,,,,,,,,,,,,,,,60.081189799999265,60.08579229999941,61.58210289999988,61.58210289999988,61.59873299999981,62.082132499999716,62.23787979999997,f,0,0.6460012999996252,None,,P22,113,2025-04-03_16h10.33.994,416_EXPERIMENT_PSYCHOPY_AU2220019_AU2220225,2024.2.4,59.65355600799084,2025-04-03 16h13.51.148498 +0530,
surprise_upper_blur.jpg,s,5,5,0,s,1,0.5150358999999298,None,0,5,5,4,62.271693400000004,,,,,,,,,,,,,,,,62.26166469999953,62.271693400000004,63.748783699999876,63.748783699999876,63.7821371,64.24784389999968,64.26822739999989,s,1,0.5150358999999298,None,,P22,113,2025-04-03_16h10.33.994,416_EXPERIMENT_PSYCHOPY_AU2220019_AU2220225,2024.2.4,59.65355600799084,2025-04-03 16h13.51.148498 +0530,
fear_upper_blur.jpg,f,6,0,1,None,0,,,1,0,6,2,64.28686409999955,,,,,,,,,,,,,,,,64.28202650000003,64.28686409999955,65.78229969999938,65.78229969999938,65.79908519999935,66.28193459999966,66.5170005,None,0,,,66.53629899999942,P22,113,2025-04-03_16h10.33.994,416_EXPERIMENT_PSYCHOPY_AU2220019_AU2220225,2024.2.4,59.65355600799084,2025-04-03 16h13.51.148498 +0530,
surprise.jpg,s,7,1,1,None,0,,,1,1,7,1,66.53629899999942,,,,,,,,,,,,,,,,66.53208739999991,66.53629899999942,68.03310539999984,68.03310539999984,68.04911269999957,68.5478051,68.78299509999943,None,0,,,,P22,113,2025-04-03_16h10.33.994,416_EXPERIMENT_PSYCHOPY_AU2220019_AU2220225,2024.2.4,59.65355600799084,2025-04-03 16h13.51.148498 +0530,
surprise_lower_blur.jpg,s,8,2,1,None,0,,,1,2,8,5,68.82827980000002,,,,,,,,,,,,,,,,68.81305679999969,68.82827980000002,70.28283949999968,70.28283949999968,70.3325703999999,70.7817301999994,71.01685759999964,None,0,,,71.03513909999947,P22,113,2025-04-03_16h10.33.994,416_EXPERIMENT_PSYCHOPY_AU2220019_AU2220225,2024.2.4,59.65355600799084,2025-04-03 16h13.51.148498 +0530,
fear_lower_blur.jpg,f,9,3,1,None,0,,,1,3,9,3,71.03513909999947,,,,,,,,,,,,,,,,71.03073339999992,71.03513909999947,72.53335209999932,72.53335209999932,72.5489835999997,73.03159009999945,73.28229719999945,None,0,,,,P22,113,2025-04-03_16h10.33.994,416_EXPERIMENT_PSYCHOPY_AU2220019_AU2220225,2024.2.4,59.65355600799084,2025-04-03 16h13.51.148498 +0530,
surprise_upper_blur.jpg,s,10,4,1,None,0,,,1,4,10,4,73.30052449999948,,,,,,,,,,,,,,,,73.29612749999978,73.30052449999948,74.78190649999942,74.78190649999942,74.81595059999927,75.28215049999926,75.51675239999986,None,0,,,75.53523069999937,P22,113,2025-04-03_16h10.33.994,416_EXPERIMENT_PSYCHOPY_AU2220019_AU2220225,2024.2.4,59.65355600799084,2025-04-03 16h13.51.148498 +0530,
fear.jpg,f,11,5,1,None,0,,,1,5,11,0,75.53523069999937,,,,,,,,,,,,,,,,75.53066559999934,75.53523069999937,77.03240659999938,77.03240659999938,77.04887859999963,77.53209179999976,77.77221519999966,None,0,,,77.7904983999997,P22,113,2025-04-03_16h10.33.994,416_EXPERIMENT_PSYCHOPY_AU2220019_AU2220225,2024.2.4,59.65355600799084,2025-04-03 16h13.51.148498 +0530,
surprise_upper_blur.jpg,s,12,0,2,None,0,,,2,0,12,4,77.7904983999997,,,,,,,,,,,,,,,,77.78559809999933,77.7904983999997,79.28163009999935,79.28163009999935,79.2992977999993,79.78247310000006,80.01823169999989,None,0,,,80.05484350000006,P22,113,2025-04-03_16h10.33.994,416_EXPERIMENT_PSYCHOPY_AU2220019_AU2220225,2024.2.4,59.65355600799084,2025-04-03 16h13.51.148498 +0530,
surprise.jpg,s,13,1,2,None,0,,,2,1,13,1,80.05484350000006,,,,,,,,,,,,,,,,80.04726260000007,80.05484350000006,81.53339830000004,81.53339830000004,81.56549199999972,82.04831529999956,82.26710719999937,None,0,,,82.28530049999972,P22,113,2025-04-03_16h10.33.994,416_EXPERIMENT_PSYCHOPY_AU2220019_AU2220225,2024.2.4,59.65355600799084,2025-04-03 16h13.51.148498 +0530,
fear.jpg,f,14,2,2,None,0,,,2,2,14,0,82.28530049999972,,,,,,,,,,,,,,,,82.28147799999988,82.28530049999972,83.78248689999964,83.78248689999964,83.79895439999927,84.28162169999996,84.51867469999979,None,0,,,84.55713809999997,P22,113,2025-04-03_16h10.33.994,416_EXPERIMENT_PSYCHOPY_AU2220019_AU2220225,2024.2.4,59.65355600799084,2025-04-03 16h13.51.148498 +0530,
fear_upper_blur.jpg,f,15,3,2,None,0,,,2,3,15,2,84.55713809999997,,,,,,,,,,,,,,,,84.54820919999929,84.55713809999997,86.0331484999997,86.0331484999997,86.06572779999988,86.53215069999987,86.78221269999995,None,0,,,,P22,113,2025-04-03_16h10.33.994,416_EXPERIMENT_PSYCHOPY_AU2220019_AU2220225,2024.2.4,59.65355600799084,2025-04-03 16h13.51.148498 +0530,
surprise_lower_blur.jpg,s,16,4,2,None,0,,,2,4,16,5,86.80091119999997,,,,,,,,,,,,,,,,86.79579169999943,86.80091119999997,88.28250879999996,88.28250879999996,88.31591560000015,88.78195939999932,89.01645949999966,None,0,,,89.03396229999998,P22,113,2025-04-03_16h10.33.994,416_EXPERIMENT_PSYCHOPY_AU2220019_AU2220225,2024.2.4,59.65355600799084,2025-04-03 16h13.51.148498 +0530,
fear_lower_blur.jpg,f,17,5,2,None,0,,,2,5,17,3,89.03396229999998,,,,,,,,,,,,,,,,89.02999209999962,89.03396229999998,90.5336684999993,90.5336684999993,90.54972169999928,91.04854909999995,91.28360089999933,None,0,,,,P22,113,2025-04-03_16h10.33.994,416_EXPERIMENT_PSYCHOPY_AU2220019_AU2220225,2024.2.4,59.65355600799084,2025-04-03 16h13.51.148498 +0530,
surprise_upper_blur.jpg,s,18,0,3,s,1,0.6517757000001438,None,3,0,18,4,91.31304499999987,,,,,,,,,,,,,,,,91.30786259999968,91.31304499999987,92.78225159999965,92.78225159999965,92.81590979999964,93.28202479999982,93.45087849999982,s,1,0.6517757000001438,None,,P22,113,2025-04-03_16h10.33.994,416_EXPERIMENT_PSYCHOPY_AU2220019_AU2220225,2024.2.4,59.65355600799084,2025-04-03 16h13.51.148498 +0530,
surprise.jpg,s,19,1,3,None,0,,,3,1,19,1,93.47032669999953,,,,,,,,,,,,,,,,93.46522949999962,93.47032669999953,94.96588410000004,94.96588410000004,94.98257829999966,95.46538469999996,95.70060789999934,None,0,,,95.7183372999998,P22,113,2025-04-03_16h10.33.994,416_EXPERIMENT_PSYCHOPY_AU2220019_AU2220225,2024.2.4,59.65355600799084,2025-04-03 16h13.51.148498 +0530,
fear_lower_blur.jpg,f,20,2,3,f,1,0.6992004000003362,None,3,2,20,3,95.7183372999998,,,,,,,,,,,,,,,,95.71406819999993,95.7183372999998,97.21549139999934,97.21549139999934,97.23193459999948,97.71536149999974,97.91790089999995,f,1,0.6992004000003362,None,,P22,113,2025-04-03_16h10.33.994,416_EXPERIMENT_PSYCHOPY_AU2220019_AU2220225,2024.2.4,59.65355600799084,2025-04-03 16h13.51.148498 +0530,
surprise_lower_blur.jpg,s,21,3,3,s,1,0.7083369000001767,None,3,3,21,5,97.93596209999941,,,,,,,,,,,,,,,,97.9310932999997,97.93596209999941,99.43278579999969,99.43278579999969,99.4489251999994,99.93161959999998,100.15083389999927,s,1,0.7083369000001767,None,,P22,113,2025-04-03_16h10.33.994,416_EXPERIMENT_PSYCHOPY_AU2220019_AU2220225,2024.2.4,59.65355600799084,2025-04-03 16h13.51.148498 +0530,
fear.jpg,f,22,4,3,f,1,0.6973414000003686,None,3,4,22,0,100.17211359999965,,,,,,,,,,,,,,,,100.16669599999932,100.17211359999965,101.66599179999957,101.66599179999957,101.68277820000003,102.16523839999991,102.36743289999959,f,1,0.6973414000003686,None,,P22,113,2025-04-03_16h10.33.994,416_EXPERIMENT_PSYCHOPY_AU2220019_AU2220225,2024.2.4,59.65355600799084,2025-04-03 16h13.51.148498 +0530,
fear_upper_blur.jpg,f,23,5,3,None,0,,,3,5,23,2,102.38712880000003,,,,,,,,,,,,,,,,102.38193820000015,102.38712880000003,103.88238860000001,103.88238860000001,103.89873050000006,104.38181029999942,104.61673669999982,None,0,,,104.63557349999974,P22,113,2025-04-03_16h10.33.994,416_EXPERIMENT_PSYCHOPY_AU2220019_AU2220225,2024.2.4,59.65355600799084,2025-04-03 16h13.51.148498 +0530,
surprise.jpg,s,24,0,4,s,1,0.449985100000049,None,4,0,24,1,104.63557349999974,,,,,,,,,,,,,,,,104.63162719999946,104.63557349999974,106.13207929999953,106.13207929999953,106.1487774999996,,106.58487069999956,s,1,0.449985100000049,None,,P22,113,2025-04-03_16h10.33.994,416_EXPERIMENT_PSYCHOPY_AU2220019_AU2220225,2024.2.4,59.65355600799084,2025-04-03 16h13.51.148498 +0530,
surprise_upper_blur.jpg,s,25,1,4,f,0,0.592907500000365,None,4,1,25,4,106.60251289999997,,,,,,,,,,,,,,,,106.59720119999929,106.60251289999997,108.09949879999931,108.09949879999931,108.11659150000014,108.5992269999997,108.70068889999948,f,0,0.592907500000365,None,,P22,113,2025-04-03_16h10.33.994,416_EXPERIMENT_PSYCHOPY_AU2220019_AU2220225,2024.2.4,59.65355600799084,2025-04-03 16h13.51.148498 +0530,
surprise_lower_blur.jpg,s,26,2,4,s,1,0.6968643999998676,None,4,2,26,5,108.71993010000006,,,,,,,,,,,,,,,,108.71444789999987,108.71993010000006,110.21586209999987,110.21586209999987,110.23269410000012,110.7152830999994,110.91712419999931,s,1,0.6968643999998676,None,,P22,113,2025-04-03_16h10.33.994,416_EXPERIMENT_PSYCHOPY_AU2220019_AU2220225,2024.2.4,59.65355600799084,2025-04-03 16h13.51.148498 +0530,
fear.jpg,f,27,3,4,None,0,,,4,3,27,0,110.93575929999952,,,,,,,,,,,,,,,,110.93149240000002,110.93575929999952,112.43330249999963,112.43330249999963,112.44915439999932,112.94940659999975,113.18312049999986,None,0,,,,P22,113,2025-04-03_16h10.33.994,416_EXPERIMENT_PSYCHOPY_AU2220019_AU2220225,2024.2.4,59.65355600799084,2025-04-03 16h13.51.148498 +0530,
fear_upper_blur.jpg,f,28,4,4,f,1,0.637468899999476,None,4,4,28,2,113.20809039999949,,,,,,,,,,,,,,,,113.20268390000001,113.20809039999949,114.68232050000006,114.68232050000006,114.7152914999997,115.1823930999999,115.33468719999928,f,1,0.637468899999476,None,,P22,113,2025-04-03_16h10.33.994,416_EXPERIMENT_PSYCHOPY_AU2220019_AU2220225,2024.2.4,59.65355600799084,2025-04-03 16h13.51.148498 +0530,
fear_lower_blur.jpg,f,29,5,4,f,1,0.6369496999996045,None,4,5,29,3,115.35330339999928,,,,,,,,,,,,,,,,115.34821740000007,115.35330339999928,116.84969790000014,116.84969790000014,116.86608859999978,117.34863899999982,117.49951729999975,f,1,0.6369496999996045,None,,P22,113,2025-04-03_16h10.33.994,416_EXPERIMENT_PSYCHOPY_AU2220019_AU2220225,2024.2.4,59.65355600799084,2025-04-03 16h13.51.148498 +0530,
fear_upper_blur.jpg,f,30,0,5,s,0,0.5253095000007306,None,5,0,30,2,117.5163066999994,,,,,,,,,,,,,,,,117.5123552999994,117.5163066999994,118.99924620000002,118.99924620000002,119.0159608999993,119.49894080000013,119.53453089999948,s,0,0.5253095000007306,None,,P22,113,2025-04-03_16h10.33.994,416_EXPERIMENT_PSYCHOPY_AU2220019_AU2220225,2024.2.4,59.65355600799084,2025-04-03 16h13.51.148498 +0530,
surprise_upper_blur.jpg,s,31,1,5,s,1,0.5918544999994992,None,5,1,31,4,119.55121469999995,,,,,,,,,,,,,,,,119.5463491999999,119.55121469999995,121.04984009999953,121.04984009999953,121.06602029999976,121.56574459999956,121.65004729999964,s,1,0.5918544999994992,None,,P22,113,2025-04-03_16h10.33.994,416_EXPERIMENT_PSYCHOPY_AU2220019_AU2220225,2024.2.4,59.65355600799084,2025-04-03 16h13.51.148498 +0530,
surprise.jpg,s,32,2,5,s,1,0.6102382999997644,None,5,2,32,1,121.66483100000005,,,,,,,,,,,,,,,,121.66000309999981,121.66483100000005,123.16583249999985,123.16583249999985,123.16583249999985,123.66587029999937,123.78730730000007,s,1,0.6102382999997644,None,,P22,113,2025-04-03_16h10.33.994,416_EXPERIMENT_PSYCHOPY_AU2220019_AU2220225,2024.2.4,59.65355600799084,2025-04-03 16h13.51.148498 +0530,
surprise_lower_blur.jpg,s,33,3,5,s,1,0.7112892000004649,None,5,3,33,5,123.82552619999933,,,,,,,,,,,,,,,,123.81411630000002,123.82552619999933,125.29882219999945,125.29882219999945,125.33271530000002,125.79879209999945,126.01869929999975,s,1,0.7112892000004649,None,,P22,113,2025-04-03_16h10.33.994,416_EXPERIMENT_PSYCHOPY_AU2220019_AU2220225,2024.2.4,59.65355600799084,2025-04-03 16h13.51.148498 +0530,
fear.jpg,f,34,4,5,f,1,0.7141505999998117,None,5,4,34,0,126.03845579999961,,,,,,,,,,,,,,,,126.03288599999996,126.03845579999961,127.53300859999945,127.53300859999945,127.5499106999996,128.04867289999947,128.25204529999974,f,1,0.7141505999998117,None,,P22,113,2025-04-03_16h10.33.994,416_EXPERIMENT_PSYCHOPY_AU2220019_AU2220225,2024.2.4,59.65355600799084,2025-04-03 16h13.51.148498 +0530,
fear_lower_blur.jpg,f,35,5,5,f,1,0.5260105999996085,None,5,5,35,3,128.27159839999968,,,,,,,,,,,,,,,,128.26544689999992,128.27159839999968,129.76597880000008,129.76597880000008,129.78246080000008,130.2661234999996,130.30103229999986,f,1,0.5260105999996085,None,,P22,113,2025-04-03_16h10.33.994,416_EXPERIMENT_PSYCHOPY_AU2220019_AU2220225,2024.2.4,59.65355600799084,2025-04-03 16h13.51.148498 +0530,
surprise_upper_blur.jpg,s,36,0,6,s,1,0.6311226999996506,None,6,0,36,4,130.3193169999995,,,,,,,,,,,,,,,,130.3143425999997,130.3193169999995,131.81573560000015,131.81573560000015,131.83239839999987,132.31585079999968,132.45103740000013,s,1,0.6311226999996506,None,,P22,113,2025-04-03_16h10.33.994,416_EXPERIMENT_PSYCHOPY_AU2220019_AU2220225,2024.2.4,59.65355600799084,2025-04-03 16h13.51.148498 +0530,
fear_lower_blur.jpg,f,37,1,6,f,1,0.7127743999999439,None,6,1,37,3,132.46958279999944,,,,,,,,,,,,,,,,132.4645234999998,132.46958279999944,133.96591379999973,133.96591379999973,133.9828721999993,134.4657647999993,134.68415959999948,f,1,0.7127743999999439,None,,P22,113,2025-04-03_16h10.33.994,416_EXPERIMENT_PSYCHOPY_AU2220019_AU2220225,2024.2.4,59.65355600799084,2025-04-03 16h13.51.148498 +0530,
surprise.jpg,s,38,2,6,s,1,0.7154751999996734,None,6,2,38,1,134.70406209999965,,,,,,,,,,,,,,,,134.69835869999952,134.70406209999965,136.19967670000005,136.19967670000005,136.2162148999996,136.7151844,136.9243007999994,s,1,0.7154751999996734,None,,P22,113,2025-04-03_16h10.33.994,416_EXPERIMENT_PSYCHOPY_AU2220019_AU2220225,2024.2.4,59.65355600799084,2025-04-03 16h13.51.148498 +0530,
fear.jpg,f,39,3,6,f,1,0.5665890000000218,None,6,3,39,0,136.96475759999976,,,,,,,,,,,,,,,,136.95388849999927,136.96475759999976,138.43318480000016,138.43318480000016,138.46550649999972,138.93236669999987,139.00859109999965,f,1,0.5665890000000218,None,,P22,113,2025-04-03_16h10.33.994,416_EXPERIMENT_PSYCHOPY_AU2220019_AU2220225,2024.2.4,59.65355600799084,2025-04-03 16h13.51.148498 +0530,
surprise_lower_blur.jpg,s,40,4,6,None,0,,,6,4,40,5,139.04580309999983,,,,,,,,,,,,,,,,139.0350813999994,139.04580309999983,140.5162682,140.5162682,140.54993449999984,141.01579140000013,141.2505511999998,None,0,,,141.26865029999954,P22,113,2025-04-03_16h10.33.994,416_EXPERIMENT_PSYCHOPY_AU2220019_AU2220225,2024.2.4,59.65355600799084,2025-04-03 16h13.51.148498 +0530,
fear_upper_blur.jpg,f,41,5,6,None,0,,,6,5,41,2,141.26865029999954,,,,,,,,,,,,,,,,141.2643795999993,141.26865029999954,142.76544740000008,142.76544740000008,142.78210149999995,143.26555980000012,143.50110489999952,None,0,,,143.51699269999972,P22,113,2025-04-03_16h10.33.994,416_EXPERIMENT_PSYCHOPY_AU2220019_AU2220225,2024.2.4,59.65355600799084,2025-04-03 16h13.51.148498 +0530,
fear_upper_blur.jpg,f,42,0,7,None,0,,,7,0,42,2,143.51699269999972,,,,,,,,,,,,,,,,143.51351559999966,143.51699269999972,145.01548360000015,145.01548360000015,145.03248949999943,145.5152976999998,145.74956930000008,None,0,,,145.77002879999964,P22,113,2025-04-03_16h10.33.994,416_EXPERIMENT_PSYCHOPY_AU2220019_AU2220225,2024.2.4,59.65355600799084,2025-04-03 16h13.51.148498 +0530,
fear_lower_blur.jpg,f,43,1,7,f,1,0.6609496000000945,None,7,1,43,3,145.77002879999964,,,,,,,,,,,,,,,,145.7629449999995,145.77002879999964,147.26547949999986,147.26547949999986,147.28193159999955,147.76513459999933,147.93472889999975,f,1,0.6609496000000945,None,,P22,113,2025-04-03_16h10.33.994,416_EXPERIMENT_PSYCHOPY_AU2220019_AU2220225,2024.2.4,59.65355600799084,2025-04-03 16h13.51.148498 +0530,
surprise.jpg,s,44,2,7,s,1,0.6674065999995946,None,7,2,44,1,147.95372849999967,,,,,,,,,,,,,,,,147.94874299999992,147.95372849999967,149.44828079999934,149.44828079999934,149.4650326000001,149.94851859999926,150.11925989999963,s,1,0.6674065999995946,None,,P22,113,2025-04-03_16h10.33.994,416_EXPERIMENT_PSYCHOPY_AU2220019_AU2220225,2024.2.4,59.65355600799084,2025-04-03 16h13.51.148498 +0530,
fear.jpg,f,45,3,7,None,0,,,7,3,45,0,150.13816439999937,,,,,,,,,,,,,,,,150.1333635000001,150.13816439999937,151.6330371999993,151.6330371999993,151.64904769999976,152.13185459999931,152.38210829999935,None,0,,,,P22,113,2025-04-03_16h10.33.994,416_EXPERIMENT_PSYCHOPY_AU2220019_AU2220225,2024.2.4,59.65355600799084,2025-04-03 16h13.51.148498 +0530,
surprise_upper_blur.jpg,s,46,4,7,s,1,0.5611187000004065,None,7,4,46,4,152.39963290000014,,,,,,,,,,,,,,,,152.39525460000004,152.39963290000014,153.8832937999996,153.8832937999996,153.89912949999962,154.38164929999948,154.45086660000015,s,1,0.5611187000004065,None,,P22,113,2025-04-03_16h10.33.994,416_EXPERIMENT_PSYCHOPY_AU2220019_AU2220225,2024.2.4,59.65355600799084,2025-04-03 16h13.51.148498 +0530,
surprise_lower_blur.jpg,s,47,5,7,s,1,0.7008402999999817,None,7,5,47,5,154.4698926000001,,,,,,,,,,,,,,,,154.4651334,154.4698926000001,155.9660186000001,155.9660186000001,155.98228569999992,156.46513999999934,156.68437059999997,s,1,0.7008402999999817,None,,P22,113,2025-04-03_16h10.33.994,416_EXPERIMENT_PSYCHOPY_AU2220019_AU2220225,2024.2.4,59.65355600799084,2025-04-03 16h13.51.148498 +0530,
surprise_upper_blur.jpg,s,48,0,8,None,0,,,8,0,48,4,156.70168659999945,,,,,,,,,,,,,,,,156.6977823999996,156.70168659999945,158.1990354999998,158.1990354999998,158.2154815999993,158.69854049999958,158.93440349999946,None,0,,,158.9537491000001,P22,113,2025-04-03_16h10.33.994,416_EXPERIMENT_PSYCHOPY_AU2220019_AU2220225,2024.2.4,59.65355600799084,2025-04-03 16h13.51.148498 +0530,
surprise.jpg,s,49,1,8,s,1,0.7026134000007005,None,8,1,49,1,158.9537491000001,,,,,,,,,,,,,,,,158.9492479999999,158.9537491000001,160.44881429999987,160.44881429999987,160.4654303999996,160.9482799999996,161.16731009999967,s,1,0.7026134000007005,None,,P22,113,2025-04-03_16h10.33.994,416_EXPERIMENT_PSYCHOPY_AU2220019_AU2220225,2024.2.4,59.65355600799084,2025-04-03 16h13.51.148498 +0530,
surprise_lower_blur.jpg,s,50,2,8,None,0,,,8,2,50,5,161.18559789999927,,,,,,,,,,,,,,,,161.18096890000015,161.18559789999927,162.68235709999954,162.68235709999954,162.69836889999988,163.1815292000001,163.41688989999966,None,0,,,163.4350631999996,P22,113,2025-04-03_16h10.33.994,416_EXPERIMENT_PSYCHOPY_AU2220019_AU2220225,2024.2.4,59.65355600799084,2025-04-03 16h13.51.148498 +0530,
fear.jpg,f,51,3,8,None,0,,,8,3,51,0,163.4350631999996,,,,,,,,,,,,,,,,163.43138969999927,163.4350631999996,164.9322035999994,164.9322035999994,164.9487183000001,165.43143520000012,165.6666822999996,None,0,,,165.68456179999976,P22,113,2025-04-03_16h10.33.994,416_EXPERIMENT_PSYCHOPY_AU2220019_AU2220225,2024.2.4,59.65355600799084,2025-04-03 16h13.51.148498 +0530,
fear_lower_blur.jpg,f,52,4,8,f,1,0.5865484999994806,None,8,4,52,3,165.68456179999976,,,,,,,,,,,,,,,,165.68082219999997,165.68456179999976,167.1823728999998,167.1823728999998,167.19905319999998,167.68173899999965,167.78434489999927,f,1,0.5865484999994806,None,,P22,113,2025-04-03_16h10.33.994,416_EXPERIMENT_PSYCHOPY_AU2220019_AU2220225,2024.2.4,59.65355600799084,2025-04-03 16h13.51.148498 +0530,
fear_upper_blur.jpg,f,53,5,8,f,1,0.5592297999992297,None,8,5,53,2,167.80264279999938,,,,,,,,,,,,,,,,167.7974838,167.80264279999938,169.29819739999948,169.29819739999948,169.3149217,169.79810569999972,169.86583729999984,f,1,0.5592297999992297,None,,P22,113,2025-04-03_16h10.33.994,416_EXPERIMENT_PSYCHOPY_AU2220019_AU2220225,2024.2.4,59.65355600799084,2025-04-03 16h13.51.148498 +0530,
surprise.jpg,s,54,0,9,s,1,0.45004599999992934,None,9,0,54,1,169.88153409999995,,,,,,,,,,,,,,,,169.8767689999995,169.88153409999995,171.38162959999954,171.38162959999954,171.38162959999954,,171.8340451999993,s,1,0.45004599999992934,None,,P22,113,2025-04-03_16h10.33.994,416_EXPERIMENT_PSYCHOPY_AU2220019_AU2220225,2024.2.4,59.65355600799084,2025-04-03 16h13.51.148498 +0530,
fear.jpg,f,55,1,9,f,1,0.6243541000003461,None,9,1,55,0,171.84907919999932,,,,,,,,,,,,,,,,171.84506259999944,171.84907919999932,173.3485172999999,173.3485172999999,173.3649359000001,173.8477581999996,173.9823292000001,f,1,0.6243541000003461,None,,P22,113,2025-04-03_16h10.33.994,416_EXPERIMENT_PSYCHOPY_AU2220019_AU2220225,2024.2.4,59.65355600799084,2025-04-03 16h13.51.148498 +0530,
fear_upper_blur.jpg,f,56,2,9,f,1,0.5998106999995798,None,9,2,56,2,173.99827639999967,,,,,,,,,,,,,,,,173.9921250999996,173.99827639999967,175.4981557000001,175.4981557000001,175.4981557000001,175.99751819999983,176.10130870000012,f,1,0.5998106999995798,None,,P22,113,2025-04-03_16h10.33.994,416_EXPERIMENT_PSYCHOPY_AU2220019_AU2220225,2024.2.4,59.65355600799084,2025-04-03 16h13.51.148498 +0530,
surprise_upper_blur.jpg,s,57,3,9,f,0,0.6648251000005985,None,9,3,57,4,176.1164775999996,,,,,,,,,,,,,,,,176.11164000000008,176.1164775999996,177.61529840000003,177.61529840000003,177.6317750999997,178.11522259999947,178.28502599999956,f,0,0.6648251000005985,None,,P22,113,2025-04-03_16h10.33.994,416_EXPERIMENT_PSYCHOPY_AU2220019_AU2220225,2024.2.4,59.65355600799084,2025-04-03 16h13.51.148498 +0530,
surprise_lower_blur.jpg,s,58,4,9,s,1,0.6867122999992716,None,9,4,58,5,178.3038888000001,,,,,,,,,,,,,,,,178.29851169999984,178.3038888000001,179.7990007999997,179.7990007999997,179.81558270000005,180.29794839999977,180.5010115999994,s,1,0.6867122999992716,None,,P22,113,2025-04-03_16h10.33.994,416_EXPERIMENT_PSYCHOPY_AU2220019_AU2220225,2024.2.4,59.65355600799084,2025-04-03 16h13.51.148498 +0530,
fear_lower_blur.jpg,f,59,5,9,f,1,0.6496826000002329,None,9,5,59,3,180.51929729999938,,,,,,,,,,,,,,,,180.51428189999933,180.51929729999938,182.0157282,182.0157282,182.03222639999967,182.51553549999971,182.6735564999999,f,1,0.6496826000002329,None,,P22,113,2025-04-03_16h10.33.994,416_EXPERIMENT_PSYCHOPY_AU2220019_AU2220225,2024.2.4,59.65355600799084,2025-04-03 16h13.51.148498 +0530,
surprise.jpg,s,60,0,10,s,1,0.5973479000003863,None,10,0,60,1,182.7117064999993,,,,,,,,,,,,,,,,182.70162379999965,182.7117064999993,184.18243110000003,184.18243110000003,184.21594449999975,184.68215839999993,184.78977869999926,s,1,0.5973479000003863,None,,P22,113,2025-04-03_16h10.33.994,416_EXPERIMENT_PSYCHOPY_AU2220019_AU2220225,2024.2.4,59.65355600799084,2025-04-03 16h13.51.148498 +0530,
fear_lower_blur.jpg,f,61,1,10,f,1,0.558324900000116,None,10,1,61,3,184.8218366000001,,,,,,,,,,,,,,,,184.81537969999954,184.8218366000001,186.29901189999964,186.29901189999964,186.33168380000006,186.79836889999933,186.87155040000016,f,1,0.558324900000116,None,,P22,113,2025-04-03_16h10.33.994,416_EXPERIMENT_PSYCHOPY_AU2220019_AU2220225,2024.2.4,59.65355600799084,2025-04-03 16h13.51.148498 +0530,
surprise_upper_blur.jpg,s,62,2,10,s,1,0.6306023999995887,None,10,2,62,4,186.91229380000004,,,,,,,,,,,,,,,,186.90081409999948,186.91229380000004,188.38262759999998,188.38262759999998,188.41563289999976,188.88159050000013,189.02350229999956,s,1,0.6306023999995887,None,,P22,113,2025-04-03_16h10.33.994,416_EXPERIMENT_PSYCHOPY_AU2220019_AU2220225,2024.2.4,59.65355600799084,2025-04-03 16h13.51.148498 +0530,
surprise_lower_blur.jpg,s,63,3,10,s,1,0.6421292000004541,None,10,3,63,5,189.0640788999999,,,,,,,,,,,,,,,,189.05360740000015,189.0640788999999,190.53253760000007,190.53253760000007,190.56543499999952,191.03231139999934,191.1869797999998,s,1,0.6421292000004541,None,,P22,113,2025-04-03_16h10.33.994,416_EXPERIMENT_PSYCHOPY_AU2220019_AU2220225,2024.2.4,59.65355600799084,2025-04-03 16h13.51.148498 +0530,
fear.jpg,f,64,4,10,f,1,0.6093950000004043,None,10,4,64,0,191.2164871999994,,,,,,,,,,,,,,,,191.21043029999964,191.2164871999994,192.6992322999995,192.6992322999995,192.71599759999935,193.19839580000007,193.31780699999945,f,1,0.6093950000004043,None,,P22,113,2025-04-03_16h10.33.994,416_EXPERIMENT_PSYCHOPY_AU2220019_AU2220225,2024.2.4,59.65355600799084,2025-04-03 16h13.51.148498 +0530,
fear_upper_blur.jpg,f,65,5,10,None,0,,,10,5,65,2,193.33712379999997,,,,,,,,,,,,,,,,193.33165439999993,193.33712379999997,194.8324236999997,194.8324236999997,194.84989159999986,195.3321532,195.5665113999994,None,0,,,195.5843734,P22,113,2025-04-03_16h10.33.994,416_EXPERIMENT_PSYCHOPY_AU2220019_AU2220225,2024.2.4,59.65355600799084,2025-04-03 16h13.51.148498 +0530,
surprise_lower_blur.jpg,s,66,0,11,s,1,0.6430065000004106,None,11,0,66,5,195.5843734,,,,,,,,,,,,,,,,195.57996419999927,195.5843734,197.0834759999998,197.0834759999998,197.10002350000013,197.59799039999962,197.7340237999997,s,1,0.6430065000004106,None,,P22,113,2025-04-03_16h10.33.994,416_EXPERIMENT_PSYCHOPY_AU2220019_AU2220225,2024.2.4,59.65355600799084,2025-04-03 16h13.51.148498 +0530,
fear.jpg,f,67,1,11,f,1,0.6071922000000995,None,11,1,67,0,197.75338339999962,,,,,,,,,,,,,,,,197.74866289999954,197.75338339999962,199.24899689999984,199.24899689999984,199.26576739999928,199.74816959999953,199.86722800000007,f,1,0.6071922000000995,None,,P22,113,2025-04-03_16h10.33.994,416_EXPERIMENT_PSYCHOPY_AU2220019_AU2220225,2024.2.4,59.65355600799084,2025-04-03 16h13.51.148498 +0530,
fear_lower_blur.jpg,f,68,2,11,f,1,0.6353701999996701,None,11,2,68,3,199.8855020000001,,,,,,,,,,,,,,,,199.88076909999927,199.8855020000001,201.3819782999999,201.3819782999999,201.39876139999978,201.8818615,202.0341072000001,f,1,0.6353701999996701,None,,P22,113,2025-04-03_16h10.33.994,416_EXPERIMENT_PSYCHOPY_AU2220019_AU2220225,2024.2.4,59.65355600799084,2025-04-03 16h13.51.148498 +0530,
surprise_upper_blur.jpg,s,69,3,11,None,0,,,11,3,69,4,202.05262669999956,,,,,,,,,,,,,,,,202.04703129999962,202.05262669999956,203.54908019999948,203.54908019999948,203.56574719999935,204.04858559999957,204.28392059999987,None,0,,,204.30037979999997,P22,113,2025-04-03_16h10.33.994,416_EXPERIMENT_PSYCHOPY_AU2220019_AU2220225,2024.2.4,59.65355600799084,2025-04-03 16h13.51.148498 +0530,
fear_upper_blur.jpg,f,70,4,11,f,1,0.6166065000006711,None,11,4,70,2,204.30037979999997,,,,,,,,,,,,,,,,204.29640370000016,204.30037979999997,205.7996009999997,205.7996009999997,205.81598189999931,206.29906369999935,206.43241469999975,f,1,0.6166065000006711,None,,P22,113,2025-04-03_16h10.33.994,416_EXPERIMENT_PSYCHOPY_AU2220019_AU2220225,2024.2.4,59.65355600799084,2025-04-03 16h13.51.148498 +0530,
surprise.jpg,s,71,5,11,s,1,0.6716972000003807,None,11,5,71,1,206.4513035,,,,,,,,,,,,,,,,206.44680309999967,206.4513035,207.93249620000006,207.93249620000006,207.96618679999938,208.4321288000001,208.62046139999984,s,1,0.6716972000003807,None,,P22,113,2025-04-03_16h10.33.994,416_EXPERIMENT_PSYCHOPY_AU2220019_AU2220225,2024.2.4,59.65355600799084,2025-04-03 16h13.51.148498 +0530,
surprise_lower_blur.jpg,s,72,0,12,None,0,,,12,0,72,5,208.65577849999954,,,,,,,,,,,,,,,,208.64481399999931,208.65577849999954,210.13236529999995,210.13236529999995,210.1658625,210.6319757000001,210.86676910000006,None,0,,,210.88361209999948,P22,113,2025-04-03_16h10.33.994,416_EXPERIMENT_PSYCHOPY_AU2220019_AU2220225,2024.2.4,59.65355600799084,2025-04-03 16h13.51.148498 +0530,
surprise_upper_blur.jpg,s,73,1,12,s,1,0.6241352999995797,None,12,1,73,4,210.88361209999948,,,,,,,,,,,,,,,,210.87964120000015,210.88361209999948,212.38249899999937,212.38249899999937,212.39886279999973,212.88136789999953,213.01759419999962,s,1,0.6241352999995797,None,,P22,113,2025-04-03_16h10.33.994,416_EXPERIMENT_PSYCHOPY_AU2220019_AU2220225,2024.2.4,59.65355600799084,2025-04-03 16h13.51.148498 +0530,
fear.jpg,f,74,2,12,s,0,0.6332896999992954,None,12,2,74,0,213.03657979999934,,,,,,,,,,,,,,,,213.03117029999976,213.03657979999934,214.5327686999999,214.5327686999999,214.5492889999996,215.03169919999982,215.1844986999995,s,0,0.6332896999992954,None,,P22,113,2025-04-03_16h10.33.994,416_EXPERIMENT_PSYCHOPY_AU2220019_AU2220225,2024.2.4,59.65355600799084,2025-04-03 16h13.51.148498 +0530,
surprise.jpg,s,75,3,12,s,1,0.526639100000466,None,12,3,75,1,215.2026765999999,,,,,,,,,,,,,,,,215.19791449999957,215.2026765999999,216.6988234999999,216.6988234999999,216.71583099999953,217.19896719999997,217.23415419999947,s,1,0.526639100000466,None,,P22,113,2025-04-03_16h10.33.994,416_EXPERIMENT_PSYCHOPY_AU2220019_AU2220225,2024.2.4,59.65355600799084,2025-04-03 16h13.51.148498 +0530,
fear_lower_blur.jpg,f,76,4,12,f,1,0.526295000000573,None,12,4,76,3,217.25251679999928,,,,,,,,,,,,,,,,217.2473919999993,217.25251679999928,218.74946649999947,218.74946649999947,218.76572829999986,219.2484244999996,219.2842217999996,f,1,0.526295000000573,None,,P22,113,2025-04-03_16h10.33.994,416_EXPERIMENT_PSYCHOPY_AU2220019_AU2220225,2024.2.4,59.65355600799084,2025-04-03 16h13.51.148498 +0530,
fear_upper_blur.jpg,f,77,5,12,s,0,0.4938390999996045,None,12,5,77,2,219.30201009999928,,,,,,,,,,,,,,,,219.29698120000012,219.30201009999928,220.79898649999996,220.79898649999996,220.8155401999993,221.29828759999964,221.3002861999994,s,0,0.4938390999996045,None,,P22,113,2025-04-03_16h10.33.994,416_EXPERIMENT_PSYCHOPY_AU2220019_AU2220225,2024.2.4,59.65355600799084,2025-04-03 16h13.51.148498 +0530,
surprise_upper_blur.jpg,s,78,0,13,s,1,0.5443592999999964,None,13,0,78,4,221.31740809999974,,,,,,,,,,,,,,,,221.31302479999977,221.31740809999974,222.81583619999947,222.81583619999947,222.83189799999946,223.31576499999937,223.36784329999955,s,1,0.5443592999999964,None,,P22,113,2025-04-03_16h10.33.994,416_EXPERIMENT_PSYCHOPY_AU2220019_AU2220225,2024.2.4,59.65355600799084,2025-04-03 16h13.51.148498 +0530,
surprise.jpg,s,79,1,13,s,1,0.4690166999998837,None,13,1,79,1,223.38657969999986,,,,,,,,,,,,,,,,223.38128479999978,223.38657969999986,224.88258869999936,224.88258869999936,224.89934899999935,225.38694880000003,225.36838159999934,s,1,0.4690166999998837,None,,P22,113,2025-04-03_16h10.33.994,416_EXPERIMENT_PSYCHOPY_AU2220019_AU2220225,2024.2.4,59.65355600799084,2025-04-03 16h13.51.148498 +0530,
surprise_lower_blur.jpg,s,80,2,13,None,0,,,13,2,80,5,225.38694880000003,,,,,,,,,,,,,,,,225.38170379999974,225.38694880000003,226.88247109999975,226.88247109999975,226.89915649999966,227.3824025999993,227.61661679999997,None,0,,,227.63484530000005,P22,113,2025-04-03_16h10.33.994,416_EXPERIMENT_PSYCHOPY_AU2220019_AU2220225,2024.2.4,59.65355600799084,2025-04-03 16h13.51.148498 +0530,
fear_lower_blur.jpg,f,81,3,13,f,1,0.43334669999967446,None,13,3,81,3,227.63484530000005,,,,,,,,,,,,,,,,227.62976479999998,227.63484530000005,229.13207939999938,229.13207939999938,229.1492662999999,,229.56908320000002,f,1,0.43334669999967446,None,,P22,113,2025-04-03_16h10.33.994,416_EXPERIMENT_PSYCHOPY_AU2220019_AU2220225,2024.2.4,59.65355600799084,2025-04-03 16h13.51.148498 +0530,
fear_upper_blur.jpg,f,82,4,13,f,1,0.5280241000000387,None,13,4,82,2,229.58812619999935,,,,,,,,,,,,,,,,229.58261099999982,229.58812619999935,231.08207159999984,231.08207159999984,231.09885499999928,231.58212879999974,231.6174105,f,1,0.5280241000000387,None,,P22,113,2025-04-03_16h10.33.994,416_EXPERIMENT_PSYCHOPY_AU2220019_AU2220225,2024.2.4,59.65355600799084,2025-04-03 16h13.51.148498 +0530,
fear.jpg,f,83,5,13,f,1,0.634442399999898,None,13,5,83,0,231.63684439999997,,,,,,,,,,,,,,,,231.63116360000004,231.63684439999997,233.13296099999934,233.13296099999934,233.14955550000013,233.6324039000001,233.78464799999983,f,1,0.634442399999898,None,,P22,113,2025-04-03_16h10.33.994,416_EXPERIMENT_PSYCHOPY_AU2220019_AU2220225,2024.2.4,59.65355600799084,2025-04-03 16h13.51.148498 +0530,
surprise_upper_blur.jpg,s,84,0,14,None,0,,,14,0,84,4,233.8025816999998,,,,,,,,,,,,,,,,233.79757599999994,233.8025816999998,235.29983449999963,235.29983449999963,235.31615559999955,235.79893379999976,236.0515220999996,None,0,,,,P22,113,2025-04-03_16h10.33.994,416_EXPERIMENT_PSYCHOPY_AU2220019_AU2220225,2024.2.4,59.65355600799084,2025-04-03 16h13.51.148498 +0530,
fear_upper_blur.jpg,f,85,1,14,f,1,0.5872706000000107,None,14,1,85,2,236.0857602999995,,,,,,,,,,,,,,,,236.07734579999942,236.0857602999995,237.54980869999963,237.54980869999963,237.5993337,238.04848709999987,238.15114279999943,f,1,0.5872706000000107,None,,P22,113,2025-04-03_16h10.33.994,416_EXPERIMENT_PSYCHOPY_AU2220019_AU2220225,2024.2.4,59.65355600799084,2025-04-03 16h13.51.148498 +0530,
surprise.jpg,s,86,2,14,s,1,0.5928192999999737,None,14,2,86,1,238.16861179999978,,,,,,,,,,,,,,,,238.16305229999944,238.16861179999978,239.66583919999994,239.66583919999994,239.68192379999982,240.16505340000003,240.2679760000001,s,1,0.5928192999999737,None,,P22,113,2025-04-03_16h10.33.994,416_EXPERIMENT_PSYCHOPY_AU2220019_AU2220225,2024.2.4,59.65355600799084,2025-04-03 16h13.51.148498 +0530,
fear_lower_blur.jpg,f,87,3,14,f,1,0.676090099999783,None,14,3,87,3,240.28666169999997,,,,,,,,,,,,,,,,240.28153380000003,240.28666169999997,241.78262949999953,241.78262949999953,241.7992768999993,242.2823187999993,242.47054019999996,f,1,0.676090099999783,None,,P22,113,2025-04-03_16h10.33.994,416_EXPERIMENT_PSYCHOPY_AU2220019_AU2220225,2024.2.4,59.65355600799084,2025-04-03 16h13.51.148498 +0530,
fear.jpg,f,88,4,14,None,0,,,14,4,88,0,242.49908030000006,,,,,,,,,,,,,,,,242.48984329999985,242.49908030000006,243.98259839999992,243.98259839999992,243.9998485999995,244.4827709000001,244.71795070000007,None,0,,,244.74802480000017,P22,113,2025-04-03_16h10.33.994,416_EXPERIMENT_PSYCHOPY_AU2220019_AU2220225,2024.2.4,59.65355600799084,2025-04-03 16h13.51.148498 +0530,
surprise_lower_blur.jpg,s,89,5,14,None,0,,,14,5,89,5,244.74802480000017,,,,,,,,,,,,,,,,244.73806839999997,244.74802480000017,246.23319059999994,246.23319059999994,246.24914050000007,246.74800999999934,246.9826835999993,None,0,,,,P22,113,2025-04-03_16h10.33.994,416_EXPERIMENT_PSYCHOPY_AU2220019_AU2220225,2024.2.4,59.65355600799084,2025-04-03 16h13.51.148498 +0530,
fear_lower_blur.jpg,f,90,0,15,f,1,0.5460323999996035,None,15,0,90,3,247.01499890000014,,,,,,,,,,,,,,,,247.00721840000006,247.01499890000014,248.48341589999927,248.48341589999927,248.51651689999926,248.98252049999974,249.03439079999953,f,1,0.5460323999996035,None,,P22,113,2025-04-03_16h10.33.994,416_EXPERIMENT_PSYCHOPY_AU2220019_AU2220225,2024.2.4,59.65355600799084,2025-04-03 16h13.51.148498 +0530,
surprise_upper_blur.jpg,s,91,1,15,None,0,,,15,1,91,4,249.06819489999998,,,,,,,,,,,,,,,,249.05588609999995,249.06819489999998,250.54943449999973,250.54943449999973,250.58232429999953,251.04958739999984,251.2842544999994,None,0,,,251.30356349999965,P22,113,2025-04-03_16h10.33.994,416_EXPERIMENT_PSYCHOPY_AU2220019_AU2220225,2024.2.4,59.65355600799084,2025-04-03 16h13.51.148498 +0530,
surprise_lower_blur.jpg,s,92,2,15,s,1,0.7137569000005897,None,15,2,92,5,251.30356349999965,,,,,,,,,,,,,,,,251.29780389999996,251.30356349999965,252.79983009999978,252.79983009999978,252.81608569999935,253.2988110999995,253.51829889999954,s,1,0.7137569000005897,None,,P22,113,2025-04-03_16h10.33.994,416_EXPERIMENT_PSYCHOPY_AU2220019_AU2220225,2024.2.4,59.65355600799084,2025-04-03 16h13.51.148498 +0530,
fear_upper_blur.jpg,f,93,3,15,s,0,0.630764000000454,None,15,3,93,2,253.53567739999926,,,,,,,,,,,,,,,,253.53056219999962,253.53567739999926,255.03284410000015,255.03284410000015,255.04932989999998,255.53217789999962,255.67363729999943,s,0,0.630764000000454,None,,P22,113,2025-04-03_16h10.33.994,416_EXPERIMENT_PSYCHOPY_AU2220019_AU2220225,2024.2.4,59.65355600799084,2025-04-03 16h13.51.148498 +0530,
fear.jpg,f,94,4,15,None,0,,,15,4,94,0,255.70829679999952,,,,,,,,,,,,,,,,255.70088249999935,255.70829679999952,257.18221970000013,257.18221970000013,257.2160596999993,257.6816025999997,257.92141249999986,None,0,,,257.9644970999998,P22,113,2025-04-03_16h10.33.994,416_EXPERIMENT_PSYCHOPY_AU2220019_AU2220225,2024.2.4,59.65355600799084,2025-04-03 16h13.51.148498 +0530,
surprise.jpg,s,95,5,15,s,1,0.5245052999998734,None,15,5,95,1,257.9644970999998,,,,,,,,,,,,,,,,257.95237089999955,257.9644970999998,259.4329253999995,259.4329253999995,259.4659819999997,259.9319001999993,259.96704969999973,s,1,0.5245052999998734,None,,P22,113,2025-04-03_16h10.33.994,416_EXPERIMENT_PSYCHOPY_AU2220019_AU2220225,2024.2.4,59.65355600799084,2025-04-03 16h13.51.148498 +0530,
surprise.jpg,s,96,0,16,f,0,0.6857170000002952,None,16,0,96,1,259.9852151999994,,,,,,,,,,,,,,,,259.9804805999993,259.9852151999994,261.4830505,261.4830505,261.49913749999996,261.98252279999997,262.18691619999936,f,0,0.6857170000002952,None,,P22,113,2025-04-03_16h10.33.994,416_EXPERIMENT_PSYCHOPY_AU2220019_AU2220225,2024.2.4,59.65355600799084,2025-04-03 16h13.51.148498 +0530,
surprise_upper_blur.jpg,s,97,1,16,None,0,,,16,1,97,4,262.21912339999926,,,,,,,,,,,,,,,,262.21363699999984,262.21912339999926,263.69930699999986,263.69930699999986,263.7325436000001,264.1983387,264.4334304999993,None,0,,,264.45108059999984,P22,113,2025-04-03_16h10.33.994,416_EXPERIMENT_PSYCHOPY_AU2220019_AU2220225,2024.2.4,59.65355600799084,2025-04-03 16h13.51.148498 +0530,
fear_lower_blur.jpg,f,98,2,16,f,1,0.6578275000001668,None,16,2,98,3,264.45108059999984,,,,,,,,,,,,,,,,264.4470782999997,264.45108059999984,265.94948549999935,265.94948549999935,265.9658512999995,266.4483137999996,266.61766949999947,f,1,0.6578275000001668,None,,P22,113,2025-04-03_16h10.33.994,416_EXPERIMENT_PSYCHOPY_AU2220019_AU2220225,2024.2.4,59.65355600799084,2025-04-03 16h13.51.148498 +0530,
surprise_lower_blur.jpg,s,99,3,16,s,1,0.5139175000003888,None,16,3,99,5,266.63499520000005,,,,,,,,,,,,,,,,266.63061749999997,266.63499520000005,268.1329425999993,268.1329425999993,268.14989419999984,268.6314416999994,268.6510548999995,s,1,0.5139175000003888,None,,P22,113,2025-04-03_16h10.33.994,416_EXPERIMENT_PSYCHOPY_AU2220019_AU2220225,2024.2.4,59.65355600799084,2025-04-03 16h13.51.148498 +0530,
fear_upper_blur.jpg,f,100,4,16,f,1,0.5671345999999176,None,16,4,100,2,268.67905379999956,,,,,,,,,,,,,,,,268.66878389999965,268.67905379999956,270.16538330000003,270.16538330000003,270.1820300999998,270.6653342999998,270.7380956999996,f,1,0.5671345999999176,None,,P22,113,2025-04-03_16h10.33.994,416_EXPERIMENT_PSYCHOPY_AU2220019_AU2220225,2024.2.4,59.65355600799084,2025-04-03 16h13.51.148498 +0530,
fear.jpg,f,101,5,16,s,0,0.5233755999997811,None,16,5,101,0,270.76645929999995,,,,,,,,,,,,,,,,270.75762229999964,270.76645929999995,272.2488241000001,272.2488241000001,272.2652582999999,272.74867059999997,272.7871875999999,s,0,0.5233755999997811,None,,P22,113,2025-04-03_16h10.33.994,416_EXPERIMENT_PSYCHOPY_AU2220019_AU2220225,2024.2.4,59.65355600799084,2025-04-03 16h13.51.148498 +0530,
fear.jpg,f,102,0,17,f,1,0.6127387999995335,None,17,0,102,0,272.8239174,,,,,,,,,,,,,,,,272.81508940000003,272.8239174,274.2992796999997,274.2992796999997,274.33213909999995,274.7990542999996,274.9218590999999,f,1,0.6127387999995335,None,,P22,113,2025-04-03_16h10.33.994,416_EXPERIMENT_PSYCHOPY_AU2220019_AU2220225,2024.2.4,59.65355600799084,2025-04-03 16h13.51.148498 +0530,
fear_lower_blur.jpg,f,103,1,17,f,1,0.6354455000000598,None,17,1,103,3,274.959664,,,,,,,,,,,,,,,,274.94812,274.959664,276.4326439999995,276.4326439999995,276.46617909999986,276.9320844999993,277.08476809999956,f,1,0.6354455000000598,None,,P22,113,2025-04-03_16h10.33.994,416_EXPERIMENT_PSYCHOPY_AU2220019_AU2220225,2024.2.4,59.65355600799084,2025-04-03 16h13.51.148498 +0530,
surprise_upper_blur.jpg,s,104,2,17,s,1,0.5957867000006445,None,17,2,104,4,277.10260349999953,,,,,,,,,,,,,,,,277.09772619999967,277.10260349999953,278.59902749999947,278.59902749999947,278.6160341999994,279.09921179999947,279.20458400000007,s,1,0.5957867000006445,None,,P22,113,2025-04-03_16h10.33.994,416_EXPERIMENT_PSYCHOPY_AU2220019_AU2220225,2024.2.4,59.65355600799084,2025-04-03 16h13.51.148498 +0530,
surprise.jpg,s,105,3,17,f,0,0.5407855999992535,None,17,3,105,1,279.24217469999985,,,,,,,,,,,,,,,,279.2322104999994,279.24217469999985,280.71514339999976,280.71514339999976,280.7493541999993,281.21575849999954,281.2677585000001,f,0,0.5407855999992535,None,,P22,113,2025-04-03_16h10.33.994,416_EXPERIMENT_PSYCHOPY_AU2220019_AU2220225,2024.2.4,59.65355600799084,2025-04-03 16h13.51.148498 +0530,
fear_upper_blur.jpg,f,106,4,17,None,0,,,17,4,106,2,281.2852419999999,,,,,,,,,,,,,,,,281.2800103999998,281.2852419999999,282.7829409999995,282.7829409999995,282.79941809999946,283.2814740999993,283.51876749999974,None,0,,,283.55219359999955,P22,113,2025-04-03_16h10.33.994,416_EXPERIMENT_PSYCHOPY_AU2220019_AU2220225,2024.2.4,59.65355600799084,2025-04-03 16h13.51.148498 +0530,
surprise_lower_blur.jpg,s,107,5,17,s,1,0.6001282999995965,None,17,5,107,5,283.55219359999955,,,,,,,,,,,,,,,,283.5439550000001,283.55219359999955,285.0329256999994,285.0329256999994,285.0662634,285.53196299999945,285.64068999999927,s,1,0.6001282999995965,None,,P22,113,2025-04-03_16h10.33.994,416_EXPERIMENT_PSYCHOPY_AU2220019_AU2220225,2024.2.4,59.65355600799084,2025-04-03 16h13.51.148498 +0530,
surprise.jpg,s,108,0,18,s,1,0.6167024999995192,None,18,0,108,1,285.6797729,,,,,,,,,,,,,,,,285.6687363000001,285.6797729,287.1485370999999,287.1485370999999,287.18205599999965,287.6492201000001,287.76870640000016,s,1,0.6167024999995192,None,,P22,113,2025-04-03_16h10.33.994,416_EXPERIMENT_PSYCHOPY_AU2220019_AU2220225,2024.2.4,59.65355600799084,2025-04-03 16h13.51.148498 +0530,
surprise_lower_blur.jpg,s,109,1,18,None,0,,,18,1,109,5,287.7861071999996,,,,,,,,,,,,,,,,287.78111679999984,287.7861071999996,289.2822562000001,289.2822562000001,289.2990826999994,289.78216969999994,290.0180225999993,None,0,,,290.04288369999995,P22,113,2025-04-03_16h10.33.994,416_EXPERIMENT_PSYCHOPY_AU2220019_AU2220225,2024.2.4,59.65355600799084,2025-04-03 16h13.51.148498 +0530,
surprise_upper_blur.jpg,s,110,2,18,s,1,0.6601730000002135,None,18,2,110,4,290.04288369999995,,,,,,,,,,,,,,,,290.03657739999926,290.04288369999995,291.53257269999995,291.53257269999995,291.5494601999999,292.03177679999953,292.2010197999998,s,1,0.6601730000002135,None,,P22,113,2025-04-03_16h10.33.994,416_EXPERIMENT_PSYCHOPY_AU2220019_AU2220225,2024.2.4,59.65355600799084,2025-04-03 16h13.51.148498 +0530,
fear_upper_blur.jpg,f,111,3,18,f,1,0.579280099999778,None,18,3,111,2,292.21820769999977,,,,,,,,,,,,,,,,292.21364769999946,292.21820769999977,293.7154482999995,293.7154482999995,293.73246649999965,294.21547479999936,294.30073039999934,f,1,0.579280099999778,None,,P22,113,2025-04-03_16h10.33.994,416_EXPERIMENT_PSYCHOPY_AU2220019_AU2220225,2024.2.4,59.65355600799084,2025-04-03 16h13.51.148498 +0530,
fear_lower_blur.jpg,f,112,4,18,None,0,,,18,4,112,3,294.31826889999957,,,,,,,,,,,,,,,,294.3136504999993,294.31826889999957,295.8161591999997,295.8161591999997,295.8325249999998,296.31610049999927,296.55143959999987,None,0,,,296.5734173000001,P22,113,2025-04-03_16h10.33.994,416_EXPERIMENT_PSYCHOPY_AU2220019_AU2220225,2024.2.4,59.65355600799084,2025-04-03 16h13.51.148498 +0530,
fear.jpg,f,113,5,18,f,1,0.5526116999999431,None,18,5,113,0,296.5734173000001,,,,,,,,,,,,,,,,296.56825539999954,296.5734173000001,298.0654472999995,298.0654472999995,298.0823081999997,298.5661612999993,298.6341365999997,f,1,0.5526116999999431,None,,P22,113,2025-04-03_16h10.33.994,416_EXPERIMENT_PSYCHOPY_AU2220019_AU2220225,2024.2.4,59.65355600799084,2025-04-03 16h13.51.148498 +0530,
surprise.jpg,s,114,0,19,None,0,,,19,0,114,1,298.65275549999933,,,,,,,,,,,,,,,,298.6477638999995,298.65275549999933,300.1487982999997,300.1487982999997,300.1657540999995,300.6481057000001,300.8855235000001,None,0,,,300.9123093999997,P22,113,2025-04-03_16h10.33.994,416_EXPERIMENT_PSYCHOPY_AU2220019_AU2220225,2024.2.4,59.65355600799084,2025-04-03 16h13.51.148498 +0530,
surprise_upper_blur.jpg,s,115,1,19,None,0,,,19,1,115,4,300.9123093999997,,,,,,,,,,,,,,,,300.90532669999993,300.9123093999997,302.39886639999986,302.39886639999986,302.41534779999984,302.8986592000001,303.13379669999995,None,0,,,303.15172429999984,P22,113,2025-04-03_16h10.33.994,416_EXPERIMENT_PSYCHOPY_AU2220019_AU2220225,2024.2.4,59.65355600799084,2025-04-03 16h13.51.148498 +0530,
fear.jpg,f,116,2,19,f,1,0.6835490000003119,None,19,2,116,0,303.15172429999984,,,,,,,,,,,,,,,,303.1474159999998,303.15172429999984,304.6495500000001,304.6495500000001,304.6653553999995,305.1494081000001,305.3368141000001,f,1,0.6835490000003119,None,,P22,113,2025-04-03_16h10.33.994,416_EXPERIMENT_PSYCHOPY_AU2220019_AU2220225,2024.2.4,59.65355600799084,2025-04-03 16h13.51.148498 +0530,
surprise_lower_blur.jpg,s,117,3,19,s,1,0.5942488999999114,None,19,3,117,5,305.3524164999999,,,,,,,,,,,,,,,,305.3477972999999,305.3524164999999,306.84915,306.84915,306.86576819999937,307.3503387999999,307.4511744000001,s,1,0.5942488999999114,None,,P22,113,2025-04-03_16h10.33.994,416_EXPERIMENT_PSYCHOPY_AU2220019_AU2220225,2024.2.4,59.65355600799084,2025-04-03 16h13.51.148498 +0530,
fear_lower_blur.jpg,f,118,4,19,f,1,0.5783152000003611,None,19,4,118,3,307.4659299999994,,,,,,,,,,,,,,,,307.4615939999994,307.4659299999994,308.96597219999967,308.96597219999967,308.96597219999967,309.46586299999944,309.5510317999997,f,1,0.5783152000003611,None,,P22,113,2025-04-03_16h10.33.994,416_EXPERIMENT_PSYCHOPY_AU2220019_AU2220225,2024.2.4,59.65355600799084,2025-04-03 16h13.51.148498 +0530,
fear_upper_blur.jpg,f,119,5,19,None,0,,,19,5,119,2,309.5676522999993,,,,,,,,,,,,,,,,309.56274249999933,309.5676522999993,311.0658106000001,311.0658106000001,311.08252230000016,311.5653943999996,311.79950459999964,None,0,,,311.8160936999993,P22,113,2025-04-03_16h10.33.994,416_EXPERIMENT_PSYCHOPY_AU2220019_AU2220225,2024.2.4,59.65355600799084,2025-04-03 16h13.51.148498 +0530,
