stimulus_image,correct_response,loop.thisRepN,loop.thisTrialN,loop.thisN,loop.thisIndex,thisRow.t,notes,guide.started,instructions.started,ins_resp.started,guide.stopped,ins_resp.keys,ins_resp.rt,ins_resp.duration,guide_2.started,ins_resp_2.started,instructions_2.started,guide_2.stopped,ins_resp_2.keys,ins_resp_2.rt,ins_resp_2.duration,trial.started,fixation.started,image.started,key_resp.started,fixation.stopped,trial.stopped,key_resp.keys,key_resp.corr,key_resp.rt,key_resp.duration,image.stopped,key_resp.stopped,participant,session,date,expName,psychopyVersion,frameRate,expStart,
,,,,,,,,0.0030282000079751015,0.009519899962469935,0.009519899962469935,16.72381440002937,space,16.60896560002584,None,,,,,,,,,,,,,,,,,,,,R21,001,2025-04-02_13h27.13.549,416_EXPERIMENT_PSYCHOPY_AU2220019_AU2220225,2024.1.5,None,2025-04-02 13h27.36.459788 +0530,
,,,,,,,,,,,,,,,16.723849899950437,16.72760320000816,16.72760320000816,20.77650579996407,space,4.041057400056161,None,,,,,,,,,,,,,R21,001,2025-04-02_13h27.13.549,416_EXPERIMENT_PSYCHOPY_AU2220019_AU2220225,2024.1.5,None,2025-04-02 13h27.36.459788 +0530,
fear_upper_blur.jpg,f,0,0,0,2,20.885104099987075,,,,,,,,,,,,,,,,20.858428800012916,20.885104099987075,22.361360299983062,22.361360299983062,22.390079600038007,23.040508199948817,None,0,,,,,R21,001,2025-04-02_13h27.13.549,416_EXPERIMENT_PSYCHOPY_AU2220019_AU2220225,2024.1.5,None,2025-04-02 13h27.36.459788 +0530,
fear_lower_blur.jpg,f,0,1,1,3,23.071253999951296,,,,,,,,,,,,,,,,23.04408829996828,23.071253999951296,24.538024100009352,24.538024100009352,24.570473599946126,25.075031299958937,s,0,0.5344018000178039,None,,,R21,001,2025-04-02_13h27.13.549,416_EXPERIMENT_PSYCHOPY_AU2220019_AU2220225,2024.1.5,None,2025-04-02 13h27.36.459788 +0530,
surprise_upper_blur.jpg,s,0,2,2,4,25.1419004999334,,,,,,,,,,,,,,,,25.077189399977215,25.1419004999334,26.58592340000905,26.58592340000905,26.653161700000055,26.987608899944462,f,0,0.3853900000685826,None,,,R21,001,2025-04-02_13h27.13.549,416_EXPERIMENT_PSYCHOPY_AU2220019_AU2220225,2024.1.5,None,2025-04-02 13h27.36.459788 +0530,
surprise_lower_blur.jpg,s,0,3,3,5,27.047645599930547,,,,,,,,,,,,,,,,26.988840200006962,27.047645599930547,28.500469999969937,28.500469999969937,28.550966399954632,28.95280269999057,s,1,0.44539450004231185,None,,,R21,001,2025-04-02_13h27.13.549,416_EXPERIMENT_PSYCHOPY_AU2220019_AU2220225,2024.1.5,None,2025-04-02 13h27.36.459788 +0530,
fear.jpg,f,0,4,4,0,29.008951799944043,,,,,,,,,,,,,,,,28.954614199930802,29.008951799944043,30.46553209994454,30.46553209994454,30.515598500031047,30.9008037999738,f,1,0.42520479997619987,None,,,R21,001,2025-04-02_13h27.13.549,416_EXPERIMENT_PSYCHOPY_AU2220019_AU2220225,2024.1.5,None,2025-04-02 13h27.36.459788 +0530,
surprise.jpg,s,0,5,5,1,30.963519499986432,,,,,,,,,,,,,,,,30.902174199931324,30.963519499986432,32.413419599994086,32.413419599994086,32.463149399962276,32.83187670004554,s,1,0.4080120000289753,None,,,R21,001,2025-04-02_13h27.13.549,416_EXPERIMENT_PSYCHOPY_AU2220019_AU2220225,2024.1.5,None,2025-04-02 13h27.36.459788 +0530,
fear_upper_blur.jpg,f,1,0,6,2,32.84933009999804,,,,,,,,,,,,,,,,32.83334360003937,32.84933009999804,34.345427299966104,34.345427299966104,34.36299549997784,34.68034379999153,f,1,0.32146310003008693,None,,,R21,001,2025-04-02_13h27.13.549,416_EXPERIMENT_PSYCHOPY_AU2220019_AU2220225,2024.1.5,None,2025-04-02 13h27.36.459788 +0530,
fear_lower_blur.jpg,f,1,1,7,3,34.699423799989745,,,,,,,,,,,,,,,,34.68193439999595,34.699423799989745,36.193151199957356,36.193151199957356,36.21014480001759,36.54474990000017,s,0,0.34433550003450364,None,,,R21,001,2025-04-02_13h27.13.549,416_EXPERIMENT_PSYCHOPY_AU2220019_AU2220225,2024.1.5,None,2025-04-02 13h27.36.459788 +0530,
surprise.jpg,s,1,2,8,1,36.565083499997854,,,,,,,,,,,,,,,,36.54642539995257,36.565083499997854,38.057604799978435,38.057604799978435,38.07488480000757,38.55960299994331,f,0,0.4986421000212431,None,,,R21,001,2025-04-02_13h27.13.549,416_EXPERIMENT_PSYCHOPY_AU2220019_AU2220225,2024.1.5,None,2025-04-02 13h27.36.459788 +0530,
fear.jpg,f,1,3,9,0,38.5781818999676,,,,,,,,,,,,,,,,38.561030699987896,38.5781818999676,40.07305470004212,40.07305470004212,40.08937349996995,40.59221419994719,s,0,0.5123527999967337,None,,,R21,001,2025-04-02_13h27.13.549,416_EXPERIMENT_PSYCHOPY_AU2220019_AU2220225,2024.1.5,None,2025-04-02 13h27.36.459788 +0530,
surprise_upper_blur.jpg,s,1,4,10,4,40.611313099972904,,,,,,,,,,,,,,,,40.59380199993029,40.611313099972904,42.103853499982506,42.103853499982506,42.12103839998599,42.739338999963365,s,1,0.6321530999848619,None,,,R21,001,2025-04-02_13h27.13.549,416_EXPERIMENT_PSYCHOPY_AU2220019_AU2220225,2024.1.5,None,2025-04-02 13h27.36.459788 +0530,
surprise_lower_blur.jpg,s,1,5,11,5,42.75770570000168,,,,,,,,,,,,,,,,42.740816900040954,42.75770570000168,44.25162689993158,44.25162689993158,44.26911660004407,44.88654179999139,f,0,0.6236886000260711,None,,,R21,001,2025-04-02_13h27.13.549,416_EXPERIMENT_PSYCHOPY_AU2220019_AU2220225,2024.1.5,None,2025-04-02 13h27.36.459788 +0530,
surprise_lower_blur.jpg,s,2,0,12,5,44.903997499961406,,,,,,,,,,,,,,,,44.88811519998126,44.903997499961406,46.39978029998019,46.39978029998019,46.416531799943186,46.65196960000321,s,1,0.24596390000078827,None,,,R21,001,2025-04-02_13h27.13.549,416_EXPERIMENT_PSYCHOPY_AU2220019_AU2220225,2024.1.5,None,2025-04-02 13h27.36.459788 +0530,
fear.jpg,f,2,1,13,0,46.67793739994522,,,,,,,,,,,,,,,,46.65384509996511,46.67793739994522,48.164798000012524,48.164798000012524,48.181800800026394,48.43308019998949,f,1,0.2523219999857247,None,,,R21,001,2025-04-02_13h27.13.549,416_EXPERIMENT_PSYCHOPY_AU2220019_AU2220225,2024.1.5,None,2025-04-02 13h27.36.459788 +0530,
surprise.jpg,s,2,2,14,1,48.45134579995647,,,,,,,,,,,,,,,,48.43441250000615,48.45134579995647,49.94616219995078,49.94616219995078,49.9633495999733,50.43169150000904,s,1,0.470277399988845,None,,,R21,001,2025-04-02_13h27.13.549,416_EXPERIMENT_PSYCHOPY_AU2220019_AU2220225,2024.1.5,None,2025-04-02 13h27.36.459788 +0530,
surprise_upper_blur.jpg,s,2,3,15,4,50.45036010001786,,,,,,,,,,,,,,,,50.433214299962856,50.45036010001786,51.94504320004489,51.94504320004489,51.96139609999955,52.38069210003596,f,0,0.4221240000333637,None,,,R21,001,2025-04-02_13h27.13.549,416_EXPERIMENT_PSYCHOPY_AU2220019_AU2220225,2024.1.5,None,2025-04-02 13h27.36.459788 +0530,
fear_lower_blur.jpg,f,2,4,16,3,52.39936729997862,,,,,,,,,,,,,,,,52.382158200023696,52.39936729997862,53.89210419997107,53.89210419997107,53.909463900025,54.41035449993797,s,0,0.5029188999906182,None,,,R21,001,2025-04-02_13h27.13.549,416_EXPERIMENT_PSYCHOPY_AU2220019_AU2220225,2024.1.5,None,2025-04-02 13h27.36.459788 +0530,
fear_upper_blur.jpg,f,2,5,17,2,54.427602499956265,,,,,,,,,,,,,,,,54.41179899999406,54.427602499956265,55.92385459993966,55.92385459993966,55.940359200001694,56.4424559000181,f,1,0.5142508000135422,None,,,R21,001,2025-04-02_13h27.13.549,416_EXPERIMENT_PSYCHOPY_AU2220019_AU2220225,2024.1.5,None,2025-04-02 13h27.36.459788 +0530,
surprise_upper_blur.jpg,s,3,0,18,4,56.45962670003064,,,,,,,,,,,,,,,,56.4438163000159,56.45962670003064,57.95480219996534,57.95480219996534,57.97210529993754,58.573137299972586,s,1,0.6065025998977944,None,,,R21,001,2025-04-02_13h27.13.549,416_EXPERIMENT_PSYCHOPY_AU2220019_AU2220225,2024.1.5,None,2025-04-02 13h27.36.459788 +0530,
surprise_lower_blur.jpg,s,3,1,19,5,58.59056859998964,,,,,,,,,,,,,,,,58.57449589995667,58.59056859998964,60.08646389993373,60.08646389993373,60.103099999949336,60.52207239996642,f,0,0.43346629990264773,None,,,R21,001,2025-04-02_13h27.13.549,416_EXPERIMENT_PSYCHOPY_AU2220019_AU2220225,2024.1.5,None,2025-04-02 13h27.36.459788 +0530,
fear_upper_blur.jpg,f,3,2,20,2,60.54149940004572,,,,,,,,,,,,,,,,60.52369709999766,60.54149940004572,62.0348273999989,62.0348273999989,62.051288999966346,62.4533073999919,s,0,0.41518189990893006,None,,,R21,001,2025-04-02_13h27.13.549,416_EXPERIMENT_PSYCHOPY_AU2220019_AU2220225,2024.1.5,None,2025-04-02 13h27.36.459788 +0530,
fear_lower_blur.jpg,f,3,3,21,3,62.47170300001744,,,,,,,,,,,,,,,,62.45469239994418,62.47170300001744,63.966061700019054,63.966061700019054,63.982973300036974,64.40058459993452,f,1,0.431061000097543,None,,,R21,001,2025-04-02_13h27.13.549,416_EXPERIMENT_PSYCHOPY_AU2220019_AU2220225,2024.1.5,None,2025-04-02 13h27.36.459788 +0530,
surprise.jpg,s,3,4,22,1,64.41843499999959,,,,,,,,,,,,,,,,64.40194889996201,64.41843499999959,65.9143338999711,65.9143338999711,65.93077800003812,66.18430009996518,f,0,0.2663954000454396,None,,,R21,001,2025-04-02_13h27.13.549,416_EXPERIMENT_PSYCHOPY_AU2220019_AU2220225,2024.1.5,None,2025-04-02 13h27.36.459788 +0530,
fear.jpg,f,3,5,23,0,66.20472679997329,,,,,,,,,,,,,,,,66.18619949999265,66.20472679997329,67.69520419999026,67.69520419999026,67.71238259994425,68.31411130004562,f,1,0.6153956000925973,None,,,R21,001,2025-04-02_13h27.13.549,416_EXPERIMENT_PSYCHOPY_AU2220019_AU2220225,2024.1.5,None,2025-04-02 13h27.36.459788 +0530,
surprise_lower_blur.jpg,s,4,0,24,5,68.33261329995003,,,,,,,,,,,,,,,,68.31558769999538,68.33261329995003,69.8267420999473,69.8267420999473,69.8432023000205,70.32805819995701,s,1,0.4839076000498608,None,,,R21,001,2025-04-02_13h27.13.549,416_EXPERIMENT_PSYCHOPY_AU2220019_AU2220225,2024.1.5,None,2025-04-02 13h27.36.459788 +0530,
surprise_upper_blur.jpg,s,4,1,25,4,70.34416600002442,,,,,,,,,,,,,,,,70.32927909994032,70.34416600002442,71.84077589993831,71.84077589993831,71.85854299995117,72.57618490001187,None,0,,,72.59628389996942,72.59628389996942,R21,001,2025-04-02_13h27.13.549,416_EXPERIMENT_PSYCHOPY_AU2220019_AU2220225,2024.1.5,None,2025-04-02 13h27.36.459788 +0530,
surprise.jpg,s,4,2,26,1,72.59628389996942,,,,,,,,,,,,,,,,72.57790809997823,72.59628389996942,74.09015699999873,74.09015699999873,74.10652709996793,74.35817379993387,f,0,0.25389870000071824,None,,,R21,001,2025-04-02_13h27.13.549,416_EXPERIMENT_PSYCHOPY_AU2220019_AU2220225,2024.1.5,None,2025-04-02 13h27.36.459788 +0530,
fear_upper_blur.jpg,f,4,3,27,2,74.37626900000032,,,,,,,,,,,,,,,,74.35967279993929,74.37626900000032,75.87081079999916,75.87081079999916,75.8876071999548,76.40499710000586,s,0,0.5298108001006767,None,,,R21,001,2025-04-02_13h27.13.549,416_EXPERIMENT_PSYCHOPY_AU2220019_AU2220225,2024.1.5,None,2025-04-02 13h27.36.459788 +0530,
fear.jpg,f,4,4,28,0,76.42200300004333,,,,,,,,,,,,,,,,76.40641379996669,76.42200300004333,77.91822350001894,77.91822350001894,77.93605519994162,78.17072459997144,f,1,0.2356471000239253,None,,,R21,001,2025-04-02_13h27.13.549,416_EXPERIMENT_PSYCHOPY_AU2220019_AU2220225,2024.1.5,None,2025-04-02 13h27.36.459788 +0530,
fear_lower_blur.jpg,f,4,5,29,3,78.18810120003764,,,,,,,,,,,,,,,,78.17205449996982,78.18810120003764,79.68377999996301,79.68377999996301,79.70108100003563,80.13583599997219,f,1,0.4439604999497533,None,,,R21,001,2025-04-02_13h27.13.549,416_EXPERIMENT_PSYCHOPY_AU2220019_AU2220225,2024.1.5,None,2025-04-02 13h27.36.459788 +0530,
surprise.jpg,s,5,0,30,1,80.15515320003033,,,,,,,,,,,,,,,,80.13738750002813,80.15515320003033,81.6480700999964,81.6480700999964,81.66563800000586,82.1172364000231,s,1,0.45847509999293834,None,,,R21,001,2025-04-02_13h27.13.549,416_EXPERIMENT_PSYCHOPY_AU2220019_AU2220225,2024.1.5,None,2025-04-02 13h27.36.459788 +0530,
fear_upper_blur.jpg,f,5,1,31,2,82.13579660002142,,,,,,,,,,,,,,,,82.11886119993869,82.13579660002142,83.62859390000813,83.62859390000813,83.64523150003515,84.065212000045,f,1,0.4269296999555081,None,,,R21,001,2025-04-02_13h27.13.549,416_EXPERIMENT_PSYCHOPY_AU2220019_AU2220225,2024.1.5,None,2025-04-02 13h27.36.459788 +0530,
surprise_lower_blur.jpg,s,5,2,32,5,84.0835122000426,,,,,,,,,,,,,,,,84.06669839995448,84.0835122000426,85.5780505000148,85.5780505000148,85.59467379993293,86.04639519995544,f,0,0.4590690000914037,None,,,R21,001,2025-04-02_13h27.13.549,416_EXPERIMENT_PSYCHOPY_AU2220019_AU2220225,2024.1.5,None,2025-04-02 13h27.36.459788 +0530,
fear.jpg,f,5,3,33,0,86.06588270002976,,,,,,,,,,,,,,,,86.04788139997981,86.06588270002976,87.55925339995883,87.55925339995883,87.5760098999599,88.24422879994381,s,0,0.6762661000248045,None,,,R21,001,2025-04-02_13h27.13.549,416_EXPERIMENT_PSYCHOPY_AU2220019_AU2220225,2024.1.5,None,2025-04-02 13h27.36.459788 +0530,
surprise_upper_blur.jpg,s,5,4,34,4,88.2620375000406,,,,,,,,,,,,,,,,88.24599149997812,88.2620375000406,89.75725689996034,89.75725689996034,89.77428529993631,90.07681649993174,f,0,0.312701900023967,None,,,R21,001,2025-04-02_13h27.13.549,416_EXPERIMENT_PSYCHOPY_AU2220019_AU2220225,2024.1.5,None,2025-04-02 13h27.36.459788 +0530,
fear_lower_blur.jpg,f,5,5,35,3,90.09698849997949,,,,,,,,,,,,,,,,90.07859579997603,90.09698849997949,91.58973969996441,91.58973969996441,91.60559920000378,91.95698130002711,f,1,0.353813000023365,None,,,R21,001,2025-04-02_13h27.13.549,416_EXPERIMENT_PSYCHOPY_AU2220019_AU2220225,2024.1.5,None,2025-04-02 13h27.36.459788 +0530,
fear_lower_blur.jpg,f,6,0,36,3,91.97636900004,,,,,,,,,,,,,,,,91.95866629993543,91.97636900004,93.47032109997235,93.47032109997235,93.48734939994756,93.95542819995899,s,0,0.470975200063549,None,,,R21,001,2025-04-02_13h27.13.549,416_EXPERIMENT_PSYCHOPY_AU2220019_AU2220225,2024.1.5,None,2025-04-02 13h27.36.459788 +0530,
fear_upper_blur.jpg,f,6,1,37,2,93.9741001999937,,,,,,,,,,,,,,,,93.95682259998284,93.9741001999937,95.46872689994052,95.46872689994052,95.48534070001915,95.9529778000433,f,1,0.4684816000517458,None,,,R21,001,2025-04-02_13h27.13.549,416_EXPERIMENT_PSYCHOPY_AU2220019_AU2220225,2024.1.5,None,2025-04-02 13h27.36.459788 +0530,
surprise_upper_blur.jpg,s,6,2,38,4,95.96912369993515,,,,,,,,,,,,,,,,95.95428669999819,95.96912369993515,97.46653410000727,97.46653410000727,97.48319870000705,98.05157509993296,s,1,0.5692258999915794,None,,,R21,001,2025-04-02_13h27.13.549,416_EXPERIMENT_PSYCHOPY_AU2220019_AU2220225,2024.1.5,None,2025-04-02 13h27.36.459788 +0530,
surprise.jpg,s,6,3,39,1,98.07147660001647,,,,,,,,,,,,,,,,98.0530908999499,98.07147660001647,99.56412779993843,99.56412779993843,99.58155360003002,99.81720589997713,f,0,0.25111019995529205,None,,,R21,001,2025-04-02_13h27.13.549,416_EXPERIMENT_PSYCHOPY_AU2220019_AU2220225,2024.1.5,None,2025-04-02 13h27.36.459788 +0530,
fear.jpg,f,6,4,40,0,99.83682920003776,,,,,,,,,,,,,,,,99.81885060004424,99.83682920003776,101.32925680000335,101.32925680000335,101.34600959997624,101.66457240004092,s,0,0.32863350003026426,None,,,R21,001,2025-04-02_13h27.13.549,416_EXPERIMENT_PSYCHOPY_AU2220019_AU2220225,2024.1.5,None,2025-04-02 13h27.36.459788 +0530,
surprise_lower_blur.jpg,s,6,5,41,5,101.68420979997609,,,,,,,,,,,,,,,,101.66646620002575,101.68420979997609,103.17770390002988,103.17770390002988,103.19422109995503,103.47873169998638,f,0,0.29267360002268106,None,,,R21,001,2025-04-02_13h27.13.549,416_EXPERIMENT_PSYCHOPY_AU2220019_AU2220225,2024.1.5,None,2025-04-02 13h27.36.459788 +0530,
fear_lower_blur.jpg,f,7,0,42,3,103.49779299995862,,,,,,,,,,,,,,,,103.48047529999167,103.49779299995862,104.99186830001418,104.99186830001418,105.00925699993968,105.29456129996106,f,1,0.29641460010316223,None,,,R21,001,2025-04-02_13h27.13.549,416_EXPERIMENT_PSYCHOPY_AU2220019_AU2220225,2024.1.5,None,2025-04-02 13h27.36.459788 +0530,
fear_upper_blur.jpg,f,7,1,43,2,105.31405219994485,,,,,,,,,,,,,,,,105.29641930002254,105.31405219994485,106.80760319996625,106.80760319996625,106.82431639998686,107.3603266000282,f,1,0.5505966999335214,None,,,R21,001,2025-04-02_13h27.13.549,416_EXPERIMENT_PSYCHOPY_AU2220019_AU2220225,2024.1.5,None,2025-04-02 13h27.36.459788 +0530,
surprise.jpg,s,7,2,44,1,107.38114780001342,,,,,,,,,,,,,,,,107.36199579993263,107.38114780001342,108.87253469997086,108.87253469997086,108.88867350004148,109.24152419995517,s,1,0.36626040004193783,None,,,R21,001,2025-04-02_13h27.13.549,416_EXPERIMENT_PSYCHOPY_AU2220019_AU2220225,2024.1.5,None,2025-04-02 13h27.36.459788 +0530,
fear.jpg,f,7,3,45,0,109.26140800002031,,,,,,,,,,,,,,,,109.24334279994946,109.26140800002031,110.75333660002798,110.75333660002798,110.7704901000252,111.18859769997653,s,0,0.4285686999792233,None,,,R21,001,2025-04-02_13h27.13.549,416_EXPERIMENT_PSYCHOPY_AU2220019_AU2220225,2024.1.5,None,2025-04-02 13h27.36.459788 +0530,
surprise_upper_blur.jpg,s,7,4,46,4,111.20717159996275,,,,,,,,,,,,,,,,111.19046159996651,111.20717159996275,112.70130099996459,112.70130099996459,112.71805469994433,113.10193819995038,f,0,0.38435830001253635,None,,,R21,001,2025-04-02_13h27.13.549,416_EXPERIMENT_PSYCHOPY_AU2220019_AU2220225,2024.1.5,None,2025-04-02 13h27.36.459788 +0530,
surprise_lower_blur.jpg,s,7,5,47,5,113.13288369996008,,,,,,,,,,,,,,,,113.10307069995906,113.13288369996008,114.61626599996816,114.61626599996816,114.63326989999041,115.16803509998135,f,0,0.5464027000125498,None,,,R21,001,2025-04-02_13h27.13.549,416_EXPERIMENT_PSYCHOPY_AU2220019_AU2220225,2024.1.5,None,2025-04-02 13h27.36.459788 +0530,
surprise.jpg,s,8,0,48,1,115.18926240003202,,,,,,,,,,,,,,,,115.16985089995433,115.18926240003202,116.67986819997896,116.67986819997896,116.6972919999389,117.08370459999423,s,1,0.3990293999668211,None,,,R21,001,2025-04-02_13h27.13.549,416_EXPERIMENT_PSYCHOPY_AU2220019_AU2220225,2024.1.5,None,2025-04-02 13h27.36.459788 +0530,
fear_upper_blur.jpg,f,8,1,49,2,117.10208350000903,,,,,,,,,,,,,,,,117.0851308000274,117.10208350000903,118.59518699999899,118.59518699999899,118.61173589993268,119.11539729998913,s,0,0.5093196999514475,None,,,R21,001,2025-04-02_13h27.13.549,416_EXPERIMENT_PSYCHOPY_AU2220019_AU2220225,2024.1.5,None,2025-04-02 13h27.36.459788 +0530,
surprise_upper_blur.jpg,s,8,2,50,4,119.14502719999291,,,,,,,,,,,,,,,,119.11850310000591,119.14502719999291,120.62745539995376,120.62745539995376,120.64447179995477,121.0944645999698,f,0,0.4610968000488356,None,,,R21,001,2025-04-02_13h27.13.549,416_EXPERIMENT_PSYCHOPY_AU2220019_AU2220225,2024.1.5,None,2025-04-02 13h27.36.459788 +0530,
fear.jpg,f,8,3,51,0,121.11453439993784,,,,,,,,,,,,,,,,121.09583559993189,121.11453439993784,122.60815760004334,122.60815760004334,122.6250074999407,123.11091189994477,s,0,0.4994005999760702,None,,,R21,001,2025-04-02_13h27.13.549,416_EXPERIMENT_PSYCHOPY_AU2220019_AU2220225,2024.1.5,None,2025-04-02 13h27.36.459788 +0530,
fear_lower_blur.jpg,f,8,4,52,3,123.13974549993873,,,,,,,,,,,,,,,,123.11369599995669,123.13974549993873,124.622971600038,124.622971600038,124.6394980000332,124.94054260000121,f,1,0.310531499912031,None,,,R21,001,2025-04-02_13h27.13.549,416_EXPERIMENT_PSYCHOPY_AU2220019_AU2220225,2024.1.5,None,2025-04-02 13h27.36.459788 +0530,
surprise_lower_blur.jpg,s,8,5,53,5,124.95718100003432,,,,,,,,,,,,,,,,124.94178510003258,124.95718100003432,126.45483499998227,126.45483499998227,126.45483499998227,126.84133159997873,f,0,0.38048920000437647,None,,,R21,001,2025-04-02_13h27.13.549,416_EXPERIMENT_PSYCHOPY_AU2220019_AU2220225,2024.1.5,None,2025-04-02 13h27.36.459788 +0530,
fear.jpg,f,9,0,54,0,126.86071169993374,,,,,,,,,,,,,,,,126.84291310003027,126.86071169993374,128.35277070000302,128.35277070000302,128.36921070003882,128.62259439995978,s,0,0.26641989999916404,None,,,R21,001,2025-04-02_13h27.13.549,416_EXPERIMENT_PSYCHOPY_AU2220019_AU2220225,2024.1.5,None,2025-04-02 13h27.36.459788 +0530,
fear_lower_blur.jpg,f,9,1,55,3,128.64189940004144,,,,,,,,,,,,,,,,128.6242546000285,128.64189940004144,130.1350632000249,130.1350632000249,130.15084639994893,130.42006090003997,f,1,0.27915149996988475,None,,,R21,001,2025-04-02_13h27.13.549,416_EXPERIMENT_PSYCHOPY_AU2220019_AU2220225,2024.1.5,None,2025-04-02 13h27.36.459788 +0530,
fear_upper_blur.jpg,f,9,2,56,2,130.43941630003974,,,,,,,,,,,,,,,,130.42175149999093,130.43941630003974,131.9327564999694,131.9327564999694,131.94812059996184,132.1507305999985,f,1,0.2028079000301659,None,,,R21,001,2025-04-02_13h27.13.549,416_EXPERIMENT_PSYCHOPY_AU2220019_AU2220225,2024.1.5,None,2025-04-02 13h27.36.459788 +0530,
surprise_upper_blur.jpg,s,9,3,57,4,132.16865609993692,,,,,,,,,,,,,,,,132.15229620004538,132.16865609993692,133.66432139999233,133.66432139999233,133.68129460001364,134.1489428000059,s,1,0.46871939999982715,None,,,R21,001,2025-04-02_13h27.13.549,416_EXPERIMENT_PSYCHOPY_AU2220019_AU2220225,2024.1.5,None,2025-04-02 13h27.36.459788 +0530,
surprise.jpg,s,9,4,58,1,134.16650029993616,,,,,,,,,,,,,,,,134.1502987999702,134.16650029993616,135.66215560003184,135.66215560003184,135.67926000000443,135.91496379999444,f,0,0.2492668000049889,None,,,R21,001,2025-04-02_13h27.13.549,416_EXPERIMENT_PSYCHOPY_AU2220019_AU2220225,2024.1.5,None,2025-04-02 13h27.36.459788 +0530,
surprise_lower_blur.jpg,s,9,5,59,5,135.93474199995399,,,,,,,,,,,,,,,,135.9166780000087,135.93474199995399,137.4272573000053,137.4272573000053,137.44479049998336,137.67871380003635,s,1,0.24120349995791912,None,,,R21,001,2025-04-02_13h27.13.549,416_EXPERIMENT_PSYCHOPY_AU2220019_AU2220225,2024.1.5,None,2025-04-02 13h27.36.459788 +0530,
surprise.jpg,s,10,0,60,1,137.69784599996638,,,,,,,,,,,,,,,,137.6801509000361,137.69784599996638,139.19203539995942,139.19203539995942,139.20873589999974,139.4438771000132,f,0,0.2396392000373453,None,,,R21,001,2025-04-02_13h27.13.549,416_EXPERIMENT_PSYCHOPY_AU2220019_AU2220225,2024.1.5,None,2025-04-02 13h27.36.459788 +0530,
surprise_upper_blur.jpg,s,10,1,61,4,139.46219400002155,,,,,,,,,,,,,,,,139.4453667999478,139.46219400002155,140.95702630002052,140.95702630002052,140.97359900001902,141.5415009999415,s,1,0.573599600000307,None,,,R21,001,2025-04-02_13h27.13.549,416_EXPERIMENT_PSYCHOPY_AU2220019_AU2220225,2024.1.5,None,2025-04-02 13h27.36.459788 +0530,
fear.jpg,f,10,2,62,0,141.55916609999258,,,,,,,,,,,,,,,,141.5428825999843,141.55916609999258,143.05512489995454,143.05512489995454,143.0716562999878,143.39012530003674,f,1,0.32508650003001094,None,,,R21,001,2025-04-02_13h27.13.549,416_EXPERIMENT_PSYCHOPY_AU2220019_AU2220225,2024.1.5,None,2025-04-02 13h27.36.459788 +0530,
fear_upper_blur.jpg,f,10,3,63,2,143.407955499948,,,,,,,,,,,,,,,,143.391597299953,143.407955499948,144.90340559999458,144.90340559999458,144.9204348999774,145.30465199996252,s,0,0.3871542999986559,None,,,R21,001,2025-04-02_13h27.13.549,416_EXPERIMENT_PSYCHOPY_AU2220019_AU2220225,2024.1.5,None,2025-04-02 13h27.36.459788 +0530,
surprise_lower_blur.jpg,s,10,4,64,5,145.3235524999909,,,,,,,,,,,,,,,,145.306255399948,145.3235524999909,146.81862080004066,146.81862080004066,146.8346853000112,147.31953149999026,s,1,0.4850485000060871,None,,,R21,001,2025-04-02_13h27.13.549,416_EXPERIMENT_PSYCHOPY_AU2220019_AU2220225,2024.1.5,None,2025-04-02 13h27.36.459788 +0530,
fear_lower_blur.jpg,f,10,5,65,3,147.33694539999124,,,,,,,,,,,,,,,,147.32089400000405,147.33694539999124,148.8330112999538,148.8330112999538,148.84977430000436,149.18487490003463,f,1,0.3402121999533847,None,,,R21,001,2025-04-02_13h27.13.549,416_EXPERIMENT_PSYCHOPY_AU2220019_AU2220225,2024.1.5,None,2025-04-02 13h27.36.459788 +0530,
surprise_lower_blur.jpg,s,11,0,66,5,149.20392270002048,,,,,,,,,,,,,,,,149.1865356999915,149.20392270002048,150.6975682999473,150.6975682999473,150.71455689996947,151.01540519995615,f,0,0.30428939999546856,None,,,R21,001,2025-04-02_13h27.13.549,416_EXPERIMENT_PSYCHOPY_AU2220019_AU2220225,2024.1.5,None,2025-04-02 13h27.36.459788 +0530,
surprise.jpg,s,11,1,67,1,151.0325616999762,,,,,,,,,,,,,,,,151.01670299994294,151.0325616999762,152.52946520003024,152.52946520003024,152.54556849994697,152.88143299997319,s,1,0.3460031000431627,None,,,R21,001,2025-04-02_13h27.13.549,416_EXPERIMENT_PSYCHOPY_AU2220019_AU2220225,2024.1.5,None,2025-04-02 13h27.36.459788 +0530,
fear.jpg,f,11,2,68,0,152.9018259999575,,,,,,,,,,,,,,,,152.88322860002518,152.9018259999575,154.3937745000003,154.3937745000003,154.41088470001705,154.87924759997986,s,0,0.4703634000616148,None,,,R21,001,2025-04-02_13h27.13.549,416_EXPERIMENT_PSYCHOPY_AU2220019_AU2220225,2024.1.5,None,2025-04-02 13h27.36.459788 +0530,
fear_lower_blur.jpg,f,11,3,69,3,154.89685210003518,,,,,,,,,,,,,,,,154.88069220003672,154.89685210003518,156.3924383999547,156.3924383999547,156.40892529999837,156.66085290000774,f,1,0.2616847000317648,None,,,R21,001,2025-04-02_13h27.13.549,416_EXPERIMENT_PSYCHOPY_AU2220019_AU2220225,2024.1.5,None,2025-04-02 13h27.36.459788 +0530,
surprise_upper_blur.jpg,s,11,4,70,4,156.68054850003682,,,,,,,,,,,,,,,,156.66265249997377,156.68054850003682,158.17370799998753,158.17370799998753,158.19055800000206,158.90783239994198,None,0,,,158.92686010000762,158.92686010000762,R21,001,2025-04-02_13h27.13.549,416_EXPERIMENT_PSYCHOPY_AU2220019_AU2220225,2024.1.5,None,2025-04-02 13h27.36.459788 +0530,
fear_upper_blur.jpg,f,11,5,71,2,158.92686010000762,,,,,,,,,,,,,,,,158.90928240003996,158.92686010000762,160.4215557000134,160.4215557000134,160.43865529994946,160.7373470000457,f,1,0.30492789996787906,None,,,R21,001,2025-04-02_13h27.13.549,416_EXPERIMENT_PSYCHOPY_AU2220019_AU2220225,2024.1.5,None,2025-04-02 13h27.36.459788 +0530,
fear_lower_blur.jpg,f,12,0,72,3,160.7529381000204,,,,,,,,,,,,,,,,160.7380690999562,160.7529381000204,162.25291149993427,162.25291149993427,162.25291149993427,162.55505209998228,s,0,0.29602030001115054,None,,,R21,001,2025-04-02_13h27.13.549,416_EXPERIMENT_PSYCHOPY_AU2220019_AU2220225,2024.1.5,None,2025-04-02 13h27.36.459788 +0530,
surprise.jpg,s,12,1,73,1,162.57543379999697,,,,,,,,,,,,,,,,162.5568558999803,162.57543379999697,164.0673501000274,164.0673501000274,164.0848740999354,164.50335070001893,f,0,0.4265772000653669,None,,,R21,001,2025-04-02_13h27.13.549,416_EXPERIMENT_PSYCHOPY_AU2220019_AU2220225,2024.1.5,None,2025-04-02 13h27.36.459788 +0530,
fear_upper_blur.jpg,f,12,2,74,2,164.52147649996914,,,,,,,,,,,,,,,,164.50477310002316,164.52147649996914,166.01549679995514,166.01549679995514,166.0325532000279,166.33458469994366,s,0,0.3053997999522835,None,,,R21,001,2025-04-02_13h27.13.549,416_EXPERIMENT_PSYCHOPY_AU2220019_AU2220225,2024.1.5,None,2025-04-02 13h27.36.459788 +0530,
surprise_upper_blur.jpg,s,12,3,75,4,166.35355280002113,,,,,,,,,,,,,,,,166.33627860003617,166.35355280002113,167.84717339999042,167.84717339999042,167.86396580003202,168.16593729995657,s,1,0.3078889000462368,None,,,R21,001,2025-04-02_13h27.13.549,416_EXPERIMENT_PSYCHOPY_AU2220019_AU2220225,2024.1.5,None,2025-04-02 13h27.36.459788 +0530,
surprise_lower_blur.jpg,s,12,4,76,5,168.18427139997948,,,,,,,,,,,,,,,,168.1676280000247,168.18427139997948,169.6789856000105,169.6789856000105,169.69569319998845,170.0801217999542,s,1,0.385905500035733,None,,,R21,001,2025-04-02_13h27.13.549,416_EXPERIMENT_PSYCHOPY_AU2220019_AU2220225,2024.1.5,None,2025-04-02 13h27.36.459788 +0530,
fear.jpg,f,12,5,77,0,170.09783310000785,,,,,,,,,,,,,,,,170.08156740001868,170.09783310000785,171.59407690004446,171.59407690004446,171.61037589993794,171.83096129994374,f,1,0.23434700001962483,None,,,R21,001,2025-04-02_13h27.13.549,416_EXPERIMENT_PSYCHOPY_AU2220019_AU2220225,2024.1.5,None,2025-04-02 13h27.36.459788 +0530,
surprise_lower_blur.jpg,s,13,0,78,5,171.85002649994567,,,,,,,,,,,,,,,,171.8326354000019,171.85002649994567,173.34177950001322,173.34177950001322,173.3586546999868,173.5941626999993,f,0,0.23676010000053793,None,,,R21,001,2025-04-02_13h27.13.549,416_EXPERIMENT_PSYCHOPY_AU2220019_AU2220225,2024.1.5,None,2025-04-02 13h27.36.459788 +0530,
fear.jpg,f,13,1,79,0,173.61348579998594,,,,,,,,,,,,,,,,173.59578510001302,173.61348579998594,175.10694249998778,175.10694249998778,175.12376969994511,175.3923783999635,s,0,0.281997499987483,None,,,R21,001,2025-04-02_13h27.13.549,416_EXPERIMENT_PSYCHOPY_AU2220019_AU2220225,2024.1.5,None,2025-04-02 13h27.36.459788 +0530,
surprise_upper_blur.jpg,s,13,2,80,4,175.4136187999975,,,,,,,,,,,,,,,,175.39390120003372,175.4136187999975,176.90557039994746,176.90557039994746,176.92168829997536,177.12087929993868,f,0,0.2088502999395132,None,,,R21,001,2025-04-02_13h27.13.549,416_EXPERIMENT_PSYCHOPY_AU2220019_AU2220225,2024.1.5,None,2025-04-02 13h27.36.459788 +0530,
fear_upper_blur.jpg,f,13,3,81,2,177.13674650003668,,,,,,,,,,,,,,,,177.12166669999715,177.13674650003668,178.62017509993166,178.62017509993166,178.6368520000251,179.13924539997242,s,0,0.5141682999674231,None,,,R21,001,2025-04-02_13h27.13.549,416_EXPERIMENT_PSYCHOPY_AU2220019_AU2220225,2024.1.5,None,2025-04-02 13h27.36.459788 +0530,
fear_lower_blur.jpg,f,13,4,82,3,179.1585894000018,,,,,,,,,,,,,,,,179.14115289994515,179.1585894000018,180.65151779993903,180.65151779993903,180.66796320001595,180.9699777000351,f,1,0.31173680000938475,None,,,R21,001,2025-04-02_13h27.13.549,416_EXPERIMENT_PSYCHOPY_AU2220019_AU2220225,2024.1.5,None,2025-04-02 13h27.36.459788 +0530,
surprise.jpg,s,13,5,83,1,180.98835789994337,,,,,,,,,,,,,,,,180.9715820000274,180.98835789994337,182.4826401999453,182.4826401999453,182.49962929997128,182.85156079998706,f,0,0.36417019995860755,None,,,R21,001,2025-04-02_13h27.13.549,416_EXPERIMENT_PSYCHOPY_AU2220019_AU2220225,2024.1.5,None,2025-04-02 13h27.36.459788 +0530,
surprise.jpg,s,14,0,84,1,182.87028839997947,,,,,,,,,,,,,,,,182.85325109993573,182.87028839997947,184.36454630002845,184.36454630002845,184.38152439997066,184.76752220001072,f,0,0.39816219999920577,None,,,R21,001,2025-04-02_13h27.13.549,416_EXPERIMENT_PSYCHOPY_AU2220019_AU2220225,2024.1.5,None,2025-04-02 13h27.36.459788 +0530,
surprise_upper_blur.jpg,s,14,1,85,4,184.78591009997763,,,,,,,,,,,,,,,,184.7691595000215,184.78591009997763,186.27869139995892,186.27869139995892,186.29591580003034,186.88052290002815,f,0,0.5946395000210032,None,,,R21,001,2025-04-02_13h27.13.549,416_EXPERIMENT_PSYCHOPY_AU2220019_AU2220225,2024.1.5,None,2025-04-02 13h27.36.459788 +0530,
fear.jpg,f,14,2,86,0,186.8995476999553,,,,,,,,,,,,,,,,186.88205659994856,186.8995476999553,188.39370489993598,188.39370489993598,188.41045389999636,188.91158840002026,s,0,0.5073293999303132,None,,,R21,001,2025-04-02_13h27.13.549,416_EXPERIMENT_PSYCHOPY_AU2220019_AU2220225,2024.1.5,None,2025-04-02 13h27.36.459788 +0530,
fear_lower_blur.jpg,f,14,3,87,3,188.92903150001075,,,,,,,,,,,,,,,,188.91309569997247,188.92903150001075,190.42469439993147,190.42469439993147,190.44163869996555,190.99368750001304,s,0,0.5621604999760166,None,,,R21,001,2025-04-02_13h27.13.549,416_EXPERIMENT_PSYCHOPY_AU2220019_AU2220225,2024.1.5,None,2025-04-02 13h27.36.459788 +0530,
fear_upper_blur.jpg,f,14,4,88,2,191.01179959997535,,,,,,,,,,,,,,,,190.99526150000747,191.01179959997535,192.50684940000065,192.50684940000065,192.52298000000883,192.99301159998868,f,1,0.4830977999372408,None,,,R21,001,2025-04-02_13h27.13.549,416_EXPERIMENT_PSYCHOPY_AU2220019_AU2220225,2024.1.5,None,2025-04-02 13h27.36.459788 +0530,
surprise_lower_blur.jpg,s,14,5,89,5,193.0114048999967,,,,,,,,,,,,,,,,192.9946787999943,193.0114048999967,194.50378579995595,194.50378579995595,194.5204922000412,194.94032029993832,f,0,0.4309560999972746,None,,,R21,001,2025-04-02_13h27.13.549,416_EXPERIMENT_PSYCHOPY_AU2220019_AU2220225,2024.1.5,None,2025-04-02 13h27.36.459788 +0530,
fear.jpg,f,15,0,90,0,194.96047940000426,,,,,,,,,,,,,,,,194.94196890003514,194.96047940000426,196.45210729993414,196.45210729993414,196.4690142000327,196.98783490003552,s,0,0.5235772000160068,None,,,R21,001,2025-04-02_13h27.13.549,416_EXPERIMENT_PSYCHOPY_AU2220019_AU2220225,2024.1.5,None,2025-04-02 13h27.36.459788 +0530,
surprise.jpg,s,15,1,91,1,197.0065418999875,,,,,,,,,,,,,,,,196.98941669997294,197.0065418999875,198.50025399995502,198.50025399995502,198.51686940004583,198.98642560001463,s,1,0.48385800002142787,None,,,R21,001,2025-04-02_13h27.13.549,416_EXPERIMENT_PSYCHOPY_AU2220019_AU2220225,2024.1.5,None,2025-04-02 13h27.36.459788 +0530,
surprise_upper_blur.jpg,s,15,2,92,4,199.00469880003948,,,,,,,,,,,,,,,,198.98840369994286,199.00469880003948,200.49880299996585,200.49880299996585,200.51498530001845,200.88395669998135,f,0,0.3791238999692723,None,,,R21,001,2025-04-02_13h27.13.549,416_EXPERIMENT_PSYCHOPY_AU2220019_AU2220225,2024.1.5,None,2025-04-02 13h27.36.459788 +0530,
surprise_lower_blur.jpg,s,15,3,93,5,200.90223769994918,,,,,,,,,,,,,,,,200.88546969997697,200.90223769994918,202.39665010001045,202.39665010001045,202.41367010003887,203.13071489997674,None,0,,,203.14863680000417,203.14863680000417,R21,001,2025-04-02_13h27.13.549,416_EXPERIMENT_PSYCHOPY_AU2220019_AU2220225,2024.1.5,None,2025-04-02 13h27.36.459788 +0530,
fear_upper_blur.jpg,f,15,4,94,2,203.14863680000417,,,,,,,,,,,,,,,,203.13210059993435,203.14863680000417,204.64481760002673,204.64481760002673,204.66170669998974,205.0466081999475,s,0,0.39845059998333454,None,,,R21,001,2025-04-02_13h27.13.549,416_EXPERIMENT_PSYCHOPY_AU2220019_AU2220225,2024.1.5,None,2025-04-02 13h27.36.459788 +0530,
fear_lower_blur.jpg,f,15,5,95,3,205.0647467999952,,,,,,,,,,,,,,,,205.04873559996486,205.0647467999952,206.55926250002813,206.55926250002813,206.57576789997984,207.04466709995177,s,0,0.478886800003238,None,,,R21,001,2025-04-02_13h27.13.549,416_EXPERIMENT_PSYCHOPY_AU2220019_AU2220225,2024.1.5,None,2025-04-02 13h27.36.459788 +0530,
surprise.jpg,s,16,0,96,1,207.0658347000135,,,,,,,,,,,,,,,,207.04655760002788,207.0658347000135,208.55686180002522,208.55686180002522,208.5739814999979,209.00901259994134,f,0,0.445708499988541,None,,,R21,001,2025-04-02_13h27.13.549,416_EXPERIMENT_PSYCHOPY_AU2220019_AU2220225,2024.1.5,None,2025-04-02 13h27.36.459788 +0530,
fear_upper_blur.jpg,f,16,1,97,2,209.02668999996968,,,,,,,,,,,,,,,,209.0104196999455,209.02668999996968,210.52150439994875,210.52150439994875,210.53881639998872,211.2226692000404,f,1,0.6853518999414518,None,,,R21,001,2025-04-02_13h27.13.549,416_EXPERIMENT_PSYCHOPY_AU2220019_AU2220225,2024.1.5,None,2025-04-02 13h27.36.459788 +0530,
surprise_upper_blur.jpg,s,16,2,98,4,211.23918839998078,,,,,,,,,,,,,,,,211.2241786000086,211.23918839998078,212.7367147000041,212.7367147000041,212.75289040000644,213.2544867999386,s,1,0.5107453999808058,None,,,R21,001,2025-04-02_13h27.13.549,416_EXPERIMENT_PSYCHOPY_AU2220019_AU2220225,2024.1.5,None,2025-04-02 13h27.36.459788 +0530,
fear_lower_blur.jpg,f,16,3,99,3,213.27181069995277,,,,,,,,,,,,,,,,213.2560339999618,213.27181069995277,214.76746769994497,214.76746769994497,214.78431479993742,215.10278379998636,f,1,0.31865309993736446,None,,,R21,001,2025-04-02_13h27.13.549,416_EXPERIMENT_PSYCHOPY_AU2220019_AU2220225,2024.1.5,None,2025-04-02 13h27.36.459788 +0530,
surprise_lower_blur.jpg,s,16,4,100,5,215.12052440003026,,,,,,,,,,,,,,,,215.10444010002539,215.12052440003026,216.61592070001643,216.61592070001643,216.63325159996748,216.95188740000594,s,1,0.32933400000911206,None,,,R21,001,2025-04-02_13h27.13.549,416_EXPERIMENT_PSYCHOPY_AU2220019_AU2220225,2024.1.5,None,2025-04-02 13h27.36.459788 +0530,
fear.jpg,f,16,5,101,0,216.97094729996752,,,,,,,,,,,,,,,,216.9535797999706,216.97094729996752,218.46351949998643,218.46351949998643,218.48053749999963,218.96676630002912,s,0,0.501024299999699,None,,,R21,001,2025-04-02_13h27.13.549,416_EXPERIMENT_PSYCHOPY_AU2220019_AU2220225,2024.1.5,None,2025-04-02 13h27.36.459788 +0530,
surprise_upper_blur.jpg,s,17,0,102,4,218.98468270001467,,,,,,,,,,,,,,,,218.96828329993878,218.98468270001467,220.4784384999657,220.4784384999657,220.49517509993166,221.0471661000047,s,1,0.5609055999666452,None,,,R21,001,2025-04-02_13h27.13.549,416_EXPERIMENT_PSYCHOPY_AU2220019_AU2220225,2024.1.5,None,2025-04-02 13h27.36.459788 +0530,
fear_lower_blur.jpg,f,17,1,103,3,221.06471009994857,,,,,,,,,,,,,,,,221.0486972000217,221.06471009994857,222.55952270003036,222.55952270003036,222.5775508999359,222.9784784000367,f,1,0.402794299996458,None,,,R21,001,2025-04-02_13h27.13.549,416_EXPERIMENT_PSYCHOPY_AU2220019_AU2220225,2024.1.5,None,2025-04-02 13h27.36.459788 +0530,
fear_upper_blur.jpg,f,17,2,104,2,222.9960235999897,,,,,,,,,,,,,,,,222.9802059000358,222.9960235999897,224.4914448999334,224.4914448999334,224.50854069995694,225.09266990004107,s,0,0.5919544000644237,None,,,R21,001,2025-04-02_13h27.13.549,416_EXPERIMENT_PSYCHOPY_AU2220019_AU2220225,2024.1.5,None,2025-04-02 13h27.36.459788 +0530,
surprise.jpg,s,17,3,105,1,225.11035109998193,,,,,,,,,,,,,,,,225.094309899956,225.11035109998193,226.60640729998704,226.60640729998704,226.6224227999337,227.0242744999705,f,0,0.4121183999814093,None,,,R21,001,2025-04-02_13h27.13.549,416_EXPERIMENT_PSYCHOPY_AU2220019_AU2220225,2024.1.5,None,2025-04-02 13h27.36.459788 +0530,
fear.jpg,f,17,4,106,0,227.04274820000865,,,,,,,,,,,,,,,,227.0260235000169,227.04274820000865,228.5377587999683,228.5377587999683,228.55414919997565,228.98698249994777,s,0,0.44589319999795407,None,,,R21,001,2025-04-02_13h27.13.549,416_EXPERIMENT_PSYCHOPY_AU2220019_AU2220225,2024.1.5,None,2025-04-02 13h27.36.459788 +0530,
surprise_lower_blur.jpg,s,17,5,107,5,229.00226119998842,,,,,,,,,,,,,,,,228.98763170000166,229.00226119998842,230.50268799997866,230.50268799997866,230.50268799997866,230.8370147999376,f,0,0.3229301000246778,None,,,R21,001,2025-04-02_13h27.13.549,416_EXPERIMENT_PSYCHOPY_AU2220019_AU2220225,2024.1.5,None,2025-04-02 13h27.36.459788 +0530,
fear_lower_blur.jpg,f,18,0,108,3,230.8541680999333,,,,,,,,,,,,,,,,230.8386301000137,230.8541680999333,232.35019629995804,232.35019629995804,232.3670329999877,232.73536479996983,f,1,0.3689041000325233,None,,,R21,001,2025-04-02_13h27.13.549,416_EXPERIMENT_PSYCHOPY_AU2220019_AU2220225,2024.1.5,None,2025-04-02 13h27.36.459788 +0530,
surprise_upper_blur.jpg,s,18,1,109,4,232.7515754000051,,,,,,,,,,,,,,,,232.73674510000274,232.7515754000051,234.24831079994328,234.24831079994328,234.26581250003073,234.68428899999708,s,1,0.4305055000586435,None,,,R21,001,2025-04-02_13h27.13.549,416_EXPERIMENT_PSYCHOPY_AU2220019_AU2220225,2024.1.5,None,2025-04-02 13h27.36.459788 +0530,
surprise_lower_blur.jpg,s,18,2,110,5,234.70299349993002,,,,,,,,,,,,,,,,234.6860532000428,234.70299349993002,236.19728249998298,236.19728249998298,236.21343609993346,236.64840609999374,s,1,0.43490710004698485,None,,,R21,001,2025-04-02_13h27.13.549,416_EXPERIMENT_PSYCHOPY_AU2220019_AU2220225,2024.1.5,None,2025-04-02 13h27.36.459788 +0530,
surprise.jpg,s,18,3,111,1,236.6661482999334,,,,,,,,,,,,,,,,236.6499504999956,236.6661482999334,238.16112710000016,238.16112710000016,238.1785495999502,238.78018140001222,s,1,0.6078376999357715,None,,,R21,001,2025-04-02_13h27.13.549,416_EXPERIMENT_PSYCHOPY_AU2220019_AU2220225,2024.1.5,None,2025-04-02 13h27.36.459788 +0530,
fear_upper_blur.jpg,f,18,4,112,2,238.79775249992963,,,,,,,,,,,,,,,,238.781635500025,238.79775249992963,240.29296939994674,240.29296939994674,240.30924540001433,240.77843059995212,f,1,0.48007619997952133,None,,,R21,001,2025-04-02_13h27.13.549,416_EXPERIMENT_PSYCHOPY_AU2220019_AU2220225,2024.1.5,None,2025-04-02 13h27.36.459788 +0530,
fear.jpg,f,18,5,113,0,240.7965070999926,,,,,,,,,,,,,,,,240.7801894999575,240.7965070999926,242.29007720004302,242.29007720004302,242.30789980001282,243.02523010002915,None,0,,,243.04479840002023,243.04479840002023,R21,001,2025-04-02_13h27.13.549,416_EXPERIMENT_PSYCHOPY_AU2220019_AU2220225,2024.1.5,None,2025-04-02 13h27.36.459788 +0530,
fear_upper_blur.jpg,f,19,0,114,2,243.04479840002023,,,,,,,,,,,,,,,,243.02648919995409,243.04479840002023,244.53824789996725,244.53824789996725,244.55496550002135,244.841464899946,f,1,0.30116609996184707,None,,,R21,001,2025-04-02_13h27.13.549,416_EXPERIMENT_PSYCHOPY_AU2220019_AU2220225,2024.1.5,None,2025-04-02 13h27.36.459788 +0530,
surprise_lower_blur.jpg,s,19,1,115,5,244.85883409995586,,,,,,,,,,,,,,,,244.84301529999357,244.85883409995586,246.35314489994198,246.35314489994198,246.36980099999346,246.65667149994988,f,0,0.2974576000124216,None,,,R21,001,2025-04-02_13h27.13.549,416_EXPERIMENT_PSYCHOPY_AU2220019_AU2220225,2024.1.5,None,2025-04-02 13h27.36.459788 +0530,
surprise_upper_blur.jpg,s,19,2,116,4,246.6748013999313,,,,,,,,,,,,,,,,246.65841649996582,246.6748013999313,248.16833859996404,248.16833859996404,248.18485369998962,248.371448699967,s,1,0.20094919996336102,None,,,R21,001,2025-04-02_13h27.13.549,416_EXPERIMENT_PSYCHOPY_AU2220019_AU2220225,2024.1.5,None,2025-04-02 13h27.36.459788 +0530,
surprise.jpg,s,19,3,117,1,248.39018949994352,,,,,,,,,,,,,,,,248.37289160001092,248.39018949994352,249.88329559995327,249.88329559995327,249.90019199997187,250.3353408999974,f,0,0.43995200004428625,None,,,R21,001,2025-04-02_13h27.13.549,416_EXPERIMENT_PSYCHOPY_AU2220019_AU2220225,2024.1.5,None,2025-04-02 13h27.36.459788 +0530,
fear.jpg,f,19,4,118,0,250.3530736999819,,,,,,,,,,,,,,,,250.33697169995867,250.3530736999819,251.84768410003744,251.84768410003744,251.86507019994315,252.24931919993833,s,0,0.39447470009326935,None,,,R21,001,2025-04-02_13h27.13.549,416_EXPERIMENT_PSYCHOPY_AU2220019_AU2220225,2024.1.5,None,2025-04-02 13h27.36.459788 +0530,
fear_lower_blur.jpg,f,19,5,119,3,252.26534389995504,,,,,,,,,,,,,,,,252.25073630001862,252.26534389995504,253.76289350003935,253.76289350003935,253.77975939994212,253.99799009994604,f,1,0.22707899997476488,None,,,R21,001,2025-04-02_13h27.13.549,416_EXPERIMENT_PSYCHOPY_AU2220019_AU2220225,2024.1.5,None,2025-04-02 13h27.36.459788 +0530,
