stimulus_image,correct_response,thisN,thisTrialN,thisRepN,key_resp.keys,key_resp.corr,key_resp.rt,key_resp.duration,loop.thisRepN,loop.thisTrialN,loop.thisN,loop.thisIndex,thisRow.t,notes,guide.started,instructions.started,ins_resp.started,guide.stopped,ins_resp.keys,ins_resp.rt,ins_resp.duration,guide_2.started,text.started,key_resp_2.started,guide_2.stopped,key_resp_2.keys,key_resp_2.rt,key_resp_2.duration,trial.started,fixation.started,image.started,key_resp.started,fixation.stopped,image.stopped,trial.stopped,loop.key_resp.keys,loop.key_resp.corr,key_resp.stopped,loop.key_resp.rt,loop.key_resp.duration,participant,session,date,expName,psychopyVersion,frameRate,expStart,
,,,,,,,,,,,,,,,0.0038318999995681224,0.00962470000013127,0.00962470000013127,39.84476299999915,space,39.78110729999935,None,,,,,,,,,,,,,,,,,,,,R65,114,2025-04-03_18h54.02.254,416_EXPERIMENT_PSYCHOPY_AU2220019_AU2220225,2024.2.4,59.91769705089021,2025-04-03 18h57.55.516345 +0530,
,,,,,,,,,,,,,,,,,,,,,,39.84486769999967,39.85138240000015,39.85138240000015,43.06804699999884,space,3.2055860000000393,None,,,,,,,,,,,,,R65,114,2025-04-03_18h54.02.254,416_EXPERIMENT_PSYCHOPY_AU2220019_AU2220225,2024.2.4,59.91769705089021,2025-04-03 18h57.55.516345 +0530,
surprise_lower_blur.jpg,s,0,0,0,None,0,,,0,0,0,5,43.24368789999971,,,,,,,,,,,,,,,,43.23519049999959,43.24368789999971,44.66561600000023,44.66561600000023,44.74412069999926,45.176553299999796,45.3269980999994,None,0,,,,R65,114,2025-04-03_18h54.02.254,416_EXPERIMENT_PSYCHOPY_AU2220019_AU2220225,2024.2.4,59.91769705089021,2025-04-03 18h57.55.516345 +0530,
fear_lower_blur.jpg,f,1,1,0,None,0,,,0,1,1,3,45.38496639999903,,,,,,,,,,,,,,,,45.37782940000034,45.38496639999903,46.82724679999956,46.82724679999956,46.893671699999686,47.32700829999885,47.56353409999974,None,0,47.59518819999903,,,R65,114,2025-04-03_18h54.02.254,416_EXPERIMENT_PSYCHOPY_AU2220019_AU2220225,2024.2.4,59.91769705089021,2025-04-03 18h57.55.516345 +0530,
surprise_upper_blur.jpg,s,2,2,0,None,0,,,0,2,2,4,47.59518819999903,,,,,,,,,,,,,,,,47.58767629999966,47.59518819999903,49.07726509999884,49.07726509999884,49.11019309999938,49.57684379999955,49.81304799999998,None,0,49.872799299999315,,,R65,114,2025-04-03_18h54.02.254,416_EXPERIMENT_PSYCHOPY_AU2220019_AU2220225,2024.2.4,59.91769705089021,2025-04-03 18h57.55.516345 +0530,
fear.jpg,f,3,3,0,s,0,0.520293199999287,None,0,3,3,0,49.872799299999315,,,,,,,,,,,,,,,,49.86465920000046,49.872799299999315,51.32725719999871,51.32725719999871,51.37708810000004,51.827170299999125,51.86493169999994,s,0,,0.520293199999287,None,R65,114,2025-04-03_18h54.02.254,416_EXPERIMENT_PSYCHOPY_AU2220019_AU2220225,2024.2.4,59.91769705089021,2025-04-03 18h57.55.516345 +0530,
surprise.jpg,s,4,4,0,f,0,0.46433299999989686,None,0,4,4,1,51.92408140000043,,,,,,,,,,,,,,,,51.9158482999992,51.92408140000043,53.37743260000025,53.37743260000025,53.42732419999993,,53.85022249999929,f,0,,0.46433299999989686,None,R65,114,2025-04-03_18h54.02.254,416_EXPERIMENT_PSYCHOPY_AU2220019_AU2220225,2024.2.4,59.91769705089021,2025-04-03 18h57.55.516345 +0530,
fear_upper_blur.jpg,f,5,5,0,None,0,,,0,5,5,2,53.91656159999911,,,,,,,,,,,,,,,,53.90614839999944,53.91656159999911,55.36051629999929,55.36051629999929,55.42705980000028,55.860335499999564,56.096698899998955,None,0,56.13155840000036,,,R65,114,2025-04-03_18h54.02.254,416_EXPERIMENT_PSYCHOPY_AU2220019_AU2220225,2024.2.4,59.91769705089021,2025-04-03 18h57.55.516345 +0530,
surprise.jpg,s,6,0,1,f,0,0.3845114999985526,None,1,0,6,1,56.13155840000036,,,,,,,,,,,,,,,,56.121648299998924,56.13155840000036,57.61114689999886,57.61114689999886,57.644095699999525,,58.00295089999963,f,0,,0.3845114999985526,None,R65,114,2025-04-03_18h54.02.254,416_EXPERIMENT_PSYCHOPY_AU2220019_AU2220225,2024.2.4,59.91769705089021,2025-04-03 18h57.55.516345 +0530,
surprise_lower_blur.jpg,s,7,1,1,None,0,,,1,1,7,5,58.03513860000021,,,,,,,,,,,,,,,,58.02895729999909,58.03513860000021,59.51064319999932,59.51064319999932,59.54419659999985,60.010275399999955,60.24648849999903,None,0,60.27583049999885,,,R65,114,2025-04-03_18h54.02.254,416_EXPERIMENT_PSYCHOPY_AU2220019_AU2220225,2024.2.4,59.91769705089021,2025-04-03 18h57.55.516345 +0530,
surprise_upper_blur.jpg,s,8,2,1,None,0,,,1,2,8,4,60.27583049999885,,,,,,,,,,,,,,,,60.268452099999195,60.27583049999885,61.7606665000003,61.7606665000003,61.77735699999903,62.26036980000026,62.495902299999216,None,0,62.52549460000046,,,R65,114,2025-04-03_18h54.02.254,416_EXPERIMENT_PSYCHOPY_AU2220019_AU2220225,2024.2.4,59.91769705089021,2025-04-03 18h57.55.516345 +0530,
fear.jpg,f,9,3,1,f,1,0.13297899999997753,None,1,3,9,0,62.52549460000046,,,,,,,,,,,,,,,,62.518124700000044,62.52549460000046,64.01079489999938,64.01079489999938,64.02745219999997,,64.15158539999902,f,1,,0.13297899999997753,None,R65,114,2025-04-03_18h54.02.254,416_EXPERIMENT_PSYCHOPY_AU2220019_AU2220225,2024.2.4,59.91769705089021,2025-04-03 18h57.55.516345 +0530,
fear_upper_blur.jpg,f,10,4,1,s,0,0.674043699998947,None,1,4,10,2,64.18413839999994,,,,,,,,,,,,,,,,64.17446120000022,64.18413839999994,65.66047489999983,65.66047489999983,65.69357499999933,66.16037739999956,66.34728109999924,s,0,,0.674043699998947,None,R65,114,2025-04-03_18h54.02.254,416_EXPERIMENT_PSYCHOPY_AU2220019_AU2220225,2024.2.4,59.91769705089021,2025-04-03 18h57.55.516345 +0530,
fear_lower_blur.jpg,f,11,5,1,None,0,,,1,5,11,3,66.37931779999963,,,,,,,,,,,,,,,,66.36986289999913,66.37931779999963,67.8606394999988,67.8606394999988,67.89390839999942,68.35996159999922,68.5961417999988,None,0,68.62366099999963,,,R65,114,2025-04-03_18h54.02.254,416_EXPERIMENT_PSYCHOPY_AU2220019_AU2220225,2024.2.4,59.91769705089021,2025-04-03 18h57.55.516345 +0530,
surprise_lower_blur.jpg,s,12,0,2,None,0,,,2,0,12,5,68.62366099999963,,,,,,,,,,,,,,,,68.61911510000027,68.62366099999963,70.11085999999887,70.11085999999887,70.12731379999968,70.61000869999953,70.84593229999882,None,0,70.87756549999904,,,R65,114,2025-04-03_18h54.02.254,416_EXPERIMENT_PSYCHOPY_AU2220019_AU2220225,2024.2.4,59.91769705089021,2025-04-03 18h57.55.516345 +0530,
surprise.jpg,s,13,1,2,None,0,,,2,1,13,1,70.87756549999904,,,,,,,,,,,,,,,,70.87050249999993,70.87756549999904,72.36075410000012,72.36075410000012,72.37741389999974,72.86004469999898,73.09549609999885,None,0,73.12268789999871,,,R65,114,2025-04-03_18h54.02.254,416_EXPERIMENT_PSYCHOPY_AU2220019_AU2220225,2024.2.4,59.91769705089021,2025-04-03 18h57.55.516345 +0530,
fear_lower_blur.jpg,f,14,2,2,None,0,,,2,2,14,3,73.12268789999871,,,,,,,,,,,,,,,,73.11801059999925,73.12268789999871,74.61071900000024,74.61071900000024,74.62673170000016,75.11055060000035,75.34521889999996,None,0,75.36302090000027,,,R65,114,2025-04-03_18h54.02.254,416_EXPERIMENT_PSYCHOPY_AU2220019_AU2220225,2024.2.4,59.91769705089021,2025-04-03 18h57.55.516345 +0530,
fear_upper_blur.jpg,f,15,3,2,s,0,0.6806228999994346,None,2,3,15,2,75.36302090000027,,,,,,,,,,,,,,,,75.35868189999928,75.36302090000027,76.86071679999986,76.86071679999986,76.87760639999942,77.36061530000006,77.54907639999874,s,0,,0.6806228999994346,None,R65,114,2025-04-03_18h54.02.254,416_EXPERIMENT_PSYCHOPY_AU2220019_AU2220225,2024.2.4,59.91769705089021,2025-04-03 18h57.55.516345 +0530,
fear.jpg,f,16,4,2,f,1,0.6185726999992767,None,2,4,16,0,77.57380699999885,,,,,,,,,,,,,,,,77.56670119999944,77.57380699999885,79.06089269999939,79.06089269999939,79.07733039999948,79.55997679999928,79.69523789999948,f,1,,0.6185726999992767,None,R65,114,2025-04-03_18h54.02.254,416_EXPERIMENT_PSYCHOPY_AU2220019_AU2220225,2024.2.4,59.91769705089021,2025-04-03 18h57.55.516345 +0530,
surprise_upper_blur.jpg,s,17,5,2,s,1,0.3737602000001061,None,2,5,17,4,79.71333979999872,,,,,,,,,,,,,,,,79.70862940000006,79.71333979999872,81.21077150000019,81.21077150000019,81.22717369999918,,81.59948359999908,s,1,,0.3737602000001061,None,R65,114,2025-04-03_18h54.02.254,416_EXPERIMENT_PSYCHOPY_AU2220019_AU2220225,2024.2.4,59.91769705089021,2025-04-03 18h57.55.516345 +0530,
fear.jpg,f,18,0,3,None,0,,,3,0,18,0,81.63490629999978,,,,,,,,,,,,,,,,81.62536009999894,81.63490629999978,83.11066380000011,83.11066380000011,83.14408199999889,83.61025189999964,83.84592089999933,None,0,83.87883759999931,,,R65,114,2025-04-03_18h54.02.254,416_EXPERIMENT_PSYCHOPY_AU2220019_AU2220225,2024.2.4,59.91769705089021,2025-04-03 18h57.55.516345 +0530,
fear_upper_blur.jpg,f,19,1,3,s,0,0.707588899998882,None,3,1,19,2,83.87883759999931,,,,,,,,,,,,,,,,83.87146399999983,83.87883759999931,85.3607179999999,85.3607179999999,85.39392299999963,85.86005589999877,86.07760380000036,s,0,,0.707588899998882,None,R65,114,2025-04-03_18h54.02.254,416_EXPERIMENT_PSYCHOPY_AU2220019_AU2220225,2024.2.4,59.91769705089021,2025-04-03 18h57.55.516345 +0530,
surprise_upper_blur.jpg,s,20,2,3,f,0,0.5961387000006653,None,3,2,20,4,86.09513530000004,,,,,,,,,,,,,,,,86.09069780000027,86.09513530000004,87.59441030000016,87.59441030000016,87.61102600000049,88.09354989999883,88.19508889999997,f,0,,0.5961387000006653,None,R65,114,2025-04-03_18h54.02.254,416_EXPERIMENT_PSYCHOPY_AU2220019_AU2220225,2024.2.4,59.91769705089021,2025-04-03 18h57.55.516345 +0530,
fear_lower_blur.jpg,f,21,3,3,s,0,0.44830040000124427,None,3,3,21,3,88.22059780000018,,,,,,,,,,,,,,,,88.21176589999959,88.22059780000018,89.7110049999992,89.7110049999992,89.72791399999915,,90.16722349999873,s,0,,0.44830040000124427,None,R65,114,2025-04-03_18h54.02.254,416_EXPERIMENT_PSYCHOPY_AU2220019_AU2220225,2024.2.4,59.91769705089021,2025-04-03 18h57.55.516345 +0530,
surprise.jpg,s,22,4,3,f,0,0.613146699999561,None,3,4,22,1,90.20239649999894,,,,,,,,,,,,,,,,90.19368729999951,90.20239649999894,91.67734360000031,91.67734360000031,91.7108774999997,92.1766692000001,92.29883349999909,f,0,,0.613146699999561,None,R65,114,2025-04-03_18h54.02.254,416_EXPERIMENT_PSYCHOPY_AU2220019_AU2220225,2024.2.4,59.91769705089021,2025-04-03 18h57.55.516345 +0530,
surprise_lower_blur.jpg,s,23,5,3,s,1,0.3159952999994857,None,3,5,23,5,92.3325119000001,,,,,,,,,,,,,,,,92.32361449999917,92.3325119000001,93.8110560999994,93.8110560999994,93.8440787999989,,94.13510849999875,s,1,,0.3159952999994857,None,R65,114,2025-04-03_18h54.02.254,416_EXPERIMENT_PSYCHOPY_AU2220019_AU2220225,2024.2.4,59.91769705089021,2025-04-03 18h57.55.516345 +0530,
surprise_lower_blur.jpg,s,24,0,4,f,0,0.5001733000008244,None,4,0,24,5,94.17035279999982,,,,,,,,,,,,,,,,94.1612425000003,94.17035279999982,95.64411850000033,95.64411850000033,95.67719000000034,96.14347780000026,96.15193949999957,f,0,,0.5001733000008244,None,R65,114,2025-04-03_18h54.02.254,416_EXPERIMENT_PSYCHOPY_AU2220019_AU2220225,2024.2.4,59.91769705089021,2025-04-03 18h57.55.516345 +0530,
fear_upper_blur.jpg,f,25,1,4,f,1,0.4182478999991872,None,4,1,25,2,96.18637820000004,,,,,,,,,,,,,,,,96.17678849999902,96.18637820000004,97.66054230000009,97.66054230000009,97.69400610000048,,98.08541100000002,f,1,,0.4182478999991872,None,R65,114,2025-04-03_18h54.02.254,416_EXPERIMENT_PSYCHOPY_AU2220019_AU2220225,2024.2.4,59.91769705089021,2025-04-03 18h57.55.516345 +0530,
surprise.jpg,s,26,2,4,None,0,,,4,2,26,1,98.12150719999954,,,,,,,,,,,,,,,,98.11169019999943,98.12150719999954,99.5939531999993,99.5939531999993,99.62707640000008,100.09354580000036,100.32795649999935,None,0,100.34532450000006,,,R65,114,2025-04-03_18h54.02.254,416_EXPERIMENT_PSYCHOPY_AU2220019_AU2220225,2024.2.4,59.91769705089021,2025-04-03 18h57.55.516345 +0530,
surprise_upper_blur.jpg,s,27,3,4,None,0,,,4,3,27,4,100.34532450000006,,,,,,,,,,,,,,,,100.3414130000001,100.34532450000006,101.84395869999935,101.84395869999935,101.86032569999952,102.34331360000033,102.57788540000001,None,0,102.59651669999948,,,R65,114,2025-04-03_18h54.02.254,416_EXPERIMENT_PSYCHOPY_AU2220019_AU2220225,2024.2.4,59.91769705089021,2025-04-03 18h57.55.516345 +0530,
fear.jpg,f,28,4,4,None,0,,,4,4,28,0,102.59651669999948,,,,,,,,,,,,,,,,102.59212039999875,102.59651669999948,104.09375639999962,104.09375639999962,104.11061770000015,104.59323479999875,104.82860729999993,None,0,104.84637789999942,,,R65,114,2025-04-03_18h54.02.254,416_EXPERIMENT_PSYCHOPY_AU2220019_AU2220225,2024.2.4,59.91769705089021,2025-04-03 18h57.55.516345 +0530,
fear_lower_blur.jpg,f,29,5,4,None,0,,,4,5,29,3,104.84637789999942,,,,,,,,,,,,,,,,104.84213099999943,104.84637789999942,106.34389799999917,106.34389799999917,106.36043930000051,106.8433599,107.07965879999938,None,0,107.10705710000002,,,R65,114,2025-04-03_18h54.02.254,416_EXPERIMENT_PSYCHOPY_AU2220019_AU2220225,2024.2.4,59.91769705089021,2025-04-03 18h57.55.516345 +0530,
fear_upper_blur.jpg,f,30,0,5,None,0,,,5,0,30,2,107.10705710000002,,,,,,,,,,,,,,,,107.10046689999945,107.10705710000002,108.59463589999905,108.59463589999905,108.61129169999913,109.09357319999981,109.34409450000021,None,0,,,,R65,114,2025-04-03_18h54.02.254,416_EXPERIMENT_PSYCHOPY_AU2220019_AU2220225,2024.2.4,59.91769705089021,2025-04-03 18h57.55.516345 +0530,
fear_lower_blur.jpg,f,31,1,5,f,1,0.5285017999995034,None,5,1,31,3,109.36142289999952,,,,,,,,,,,,,,,,109.35711609999998,109.36142289999952,110.84644619999926,110.84644619999926,110.86263440000039,111.36052459999883,111.38382449999881,f,1,,0.5285017999995034,None,R65,114,2025-04-03_18h54.02.254,416_EXPERIMENT_PSYCHOPY_AU2220019_AU2220225,2024.2.4,59.91769705089021,2025-04-03 18h57.55.516345 +0530,
surprise.jpg,s,32,2,5,None,0,,,5,2,32,1,111.41268219999984,,,,,,,,,,,,,,,,111.4071340999999,111.41268219999984,112.89424109999891,112.89424109999891,112.9277363000001,113.3934164000002,113.62894889999916,None,0,113.64688279999973,,,R65,114,2025-04-03_18h54.02.254,416_EXPERIMENT_PSYCHOPY_AU2220019_AU2220225,2024.2.4,59.91769705089021,2025-04-03 18h57.55.516345 +0530,
surprise_lower_blur.jpg,s,33,3,5,f,0,0.5167774000001373,None,5,3,33,5,113.64688279999973,,,,,,,,,,,,,,,,113.64294510000036,113.64688279999973,115.14465860000018,115.14465860000018,115.16116189999957,115.64351419999912,115.67757259999962,f,0,,0.5167774000001373,None,R65,114,2025-04-03_18h54.02.254,416_EXPERIMENT_PSYCHOPY_AU2220019_AU2220225,2024.2.4,59.91769705089021,2025-04-03 18h57.55.516345 +0530,
surprise_upper_blur.jpg,s,34,4,5,f,0,0.4850144000010914,None,5,4,34,4,115.69490500000029,,,,,,,,,,,,,,,,115.68978029999926,115.69490500000029,117.17795230000047,117.17795230000047,117.19413460000033,117.67704199999935,117.67980770000031,f,0,,0.4850144000010914,None,R65,114,2025-04-03_18h54.02.254,416_EXPERIMENT_PSYCHOPY_AU2220019_AU2220225,2024.2.4,59.91769705089021,2025-04-03 18h57.55.516345 +0530,
fear.jpg,f,35,5,5,None,0,,,5,5,35,0,117.70037930000035,,,,,,,,,,,,,,,,117.69529159999911,117.70037930000035,119.19399489999887,119.19399489999887,119.21067670000048,119.69295919999968,119.92955719999918,None,0,119.9669128000005,,,R65,114,2025-04-03_18h54.02.254,416_EXPERIMENT_PSYCHOPY_AU2220019_AU2220225,2024.2.4,59.91769705089021,2025-04-03 18h57.55.516345 +0530,
surprise_upper_blur.jpg,s,36,0,6,f,0,0.5769791000002442,None,6,0,36,4,119.9669128000005,,,,,,,,,,,,,,,,119.9593391999988,119.9669128000005,121.44380280000041,121.44380280000041,121.47738500000014,121.94426810000004,122.02992219999942,f,0,,0.5769791000002442,None,R65,114,2025-04-03_18h54.02.254,416_EXPERIMENT_PSYCHOPY_AU2220019_AU2220225,2024.2.4,59.91769705089021,2025-04-03 18h57.55.516345 +0530,
fear_upper_blur.jpg,f,37,1,6,None,0,,,6,1,37,2,122.05070449999948,,,,,,,,,,,,,,,,122.04500009999902,122.05070449999948,123.54438269999991,123.54438269999991,123.56096570000045,124.04375809999874,124.28073479999875,None,0,124.30818050000016,,,R65,114,2025-04-03_18h54.02.254,416_EXPERIMENT_PSYCHOPY_AU2220019_AU2220225,2024.2.4,59.91769705089021,2025-04-03 18h57.55.516345 +0530,
surprise_lower_blur.jpg,s,38,2,6,None,0,,,6,2,38,5,124.30818050000016,,,,,,,,,,,,,,,,124.30361640000046,124.30818050000016,125.79439049999928,125.79439049999928,125.81057519999922,126.29446719999942,126.52848830000039,None,0,126.54820019999897,,,R65,114,2025-04-03_18h54.02.254,416_EXPERIMENT_PSYCHOPY_AU2220019_AU2220225,2024.2.4,59.91769705089021,2025-04-03 18h57.55.516345 +0530,
fear_lower_blur.jpg,f,39,3,6,f,1,0.23551340000085474,None,6,3,39,3,126.54820019999897,,,,,,,,,,,,,,,,126.54339619999882,126.54820019999897,128.04408049999984,128.04408049999984,128.0609628000002,,128.29699289999917,f,1,,0.23551340000085474,None,R65,114,2025-04-03_18h54.02.254,416_EXPERIMENT_PSYCHOPY_AU2220019_AU2220225,2024.2.4,59.91769705089021,2025-04-03 18h57.55.516345 +0530,
fear.jpg,f,40,4,6,f,1,0.2644235999996454,None,6,4,40,0,128.31650699999955,,,,,,,,,,,,,,,,128.31190719999904,128.31650699999955,129.8113534999993,129.8113534999993,129.8278711999992,,130.08038320000014,f,1,,0.2644235999996454,None,R65,114,2025-04-03_18h54.02.254,416_EXPERIMENT_PSYCHOPY_AU2220019_AU2220225,2024.2.4,59.91769705089021,2025-04-03 18h57.55.516345 +0530,
surprise.jpg,s,41,5,6,f,0,0.27530529999967257,None,6,5,41,1,130.1000065999997,,,,,,,,,,,,,,,,130.0948943000003,130.1000065999997,131.59423179999976,131.59423179999976,131.61119899999903,,131.8837263000005,f,0,,0.27530529999967257,None,R65,114,2025-04-03_18h54.02.254,416_EXPERIMENT_PSYCHOPY_AU2220019_AU2220225,2024.2.4,59.91769705089021,2025-04-03 18h57.55.516345 +0530,
surprise_upper_blur.jpg,s,42,0,7,f,0,0.29470539999965695,None,7,0,42,4,131.92485039999883,,,,,,,,,,,,,,,,131.91218019999906,131.92485039999883,133.394954899999,133.394954899999,133.42744349999884,,133.7007866999993,f,0,,0.29470539999965695,None,R65,114,2025-04-03_18h54.02.254,416_EXPERIMENT_PSYCHOPY_AU2220019_AU2220225,2024.2.4,59.91769705089021,2025-04-03 18h57.55.516345 +0530,
fear_lower_blur.jpg,f,43,1,7,f,1,0.17506529999991471,None,7,1,43,3,133.74282999999923,,,,,,,,,,,,,,,,133.73129879999942,133.74282999999923,135.2109178999999,135.2109178999999,135.24412669999947,,135.39656149999973,f,1,,0.17506529999991471,None,R65,114,2025-04-03_18h54.02.254,416_EXPERIMENT_PSYCHOPY_AU2220019_AU2220225,2024.2.4,59.91769705089021,2025-04-03 18h57.55.516345 +0530,
fear.jpg,f,44,2,7,f,1,0.267627100000027,None,7,2,44,0,135.41502509999918,,,,,,,,,,,,,,,,135.41009940000004,135.41502509999918,136.91099620000023,136.91099620000023,136.92753749999974,,137.18676310000046,f,1,,0.267627100000027,None,R65,114,2025-04-03_18h54.02.254,416_EXPERIMENT_PSYCHOPY_AU2220019_AU2220225,2024.2.4,59.91769705089021,2025-04-03 18h57.55.516345 +0530,
surprise_lower_blur.jpg,s,45,3,7,f,0,0.23599889999968582,None,7,3,45,5,137.22539489999872,,,,,,,,,,,,,,,,137.2146787999991,137.22539489999872,138.69402350000018,138.69402350000018,138.72739869999896,,138.93627879999985,f,0,,0.23599889999968582,None,R65,114,2025-04-03_18h54.02.254,416_EXPERIMENT_PSYCHOPY_AU2220019_AU2220225,2024.2.4,59.91769705089021,2025-04-03 18h57.55.516345 +0530,
surprise.jpg,s,46,4,7,s,1,0.6499120000007679,None,7,4,46,1,138.9560222,,,,,,,,,,,,,,,,138.95079020000048,138.9560222,140.4437672999993,140.4437672999993,140.4605001,140.9433126999993,141.09916639999938,s,1,,0.6499120000007679,None,R65,114,2025-04-03_18h54.02.254,416_EXPERIMENT_PSYCHOPY_AU2220019_AU2220225,2024.2.4,59.91769705089021,2025-04-03 18h57.55.516345 +0530,
fear_upper_blur.jpg,f,47,5,7,f,1,0.627875899999708,None,7,5,47,2,141.11600960000033,,,,,,,,,,,,,,,,141.11132369999905,141.11600960000033,142.61160889999883,142.61160889999883,142.6282596000001,143.11019619999934,143.24567260000003,f,1,,0.627875899999708,None,R65,114,2025-04-03_18h54.02.254,416_EXPERIMENT_PSYCHOPY_AU2220019_AU2220225,2024.2.4,59.91769705089021,2025-04-03 18h57.55.516345 +0530,
surprise_upper_blur.jpg,s,48,0,8,s,1,0.261472700000013,None,8,0,48,4,143.26479649999965,,,,,,,,,,,,,,,,143.25970159999997,143.26479649999965,144.7608640999988,144.7608640999988,144.77725309999914,,145.0306270000001,s,1,,0.261472700000013,None,R65,114,2025-04-03_18h54.02.254,416_EXPERIMENT_PSYCHOPY_AU2220019_AU2220225,2024.2.4,59.91769705089021,2025-04-03 18h57.55.516345 +0530,
fear_lower_blur.jpg,f,49,1,8,f,1,0.35018139999920095,None,8,1,49,3,145.04780879999998,,,,,,,,,,,,,,,,145.04296969999996,145.04780879999998,146.54430820000016,146.54430820000016,146.560787299999,,146.91191769999932,f,1,,0.35018139999920095,None,R65,114,2025-04-03_18h54.02.254,416_EXPERIMENT_PSYCHOPY_AU2220019_AU2220225,2024.2.4,59.91769705089021,2025-04-03 18h57.55.516345 +0530,
fear_upper_blur.jpg,f,50,2,8,s,0,0.5340201999988494,None,8,2,50,2,146.92646129999957,,,,,,,,,,,,,,,,146.9212368999997,146.92646129999957,148.4278835999994,148.4278835999994,148.4278835999994,148.92664089999926,148.96749249999993,s,0,,0.5340201999988494,None,R65,114,2025-04-03_18h54.02.254,416_EXPERIMENT_PSYCHOPY_AU2220019_AU2220225,2024.2.4,59.91769705089021,2025-04-03 18h57.55.516345 +0530,
surprise.jpg,s,51,3,8,f,0,0.28533190000052855,None,8,3,51,1,148.99667559999943,,,,,,,,,,,,,,,,148.99080870000034,148.99667559999943,150.4777764999999,150.4777764999999,150.51115799999934,,150.77920359999916,f,0,,0.28533190000052855,None,R65,114,2025-04-03_18h54.02.254,416_EXPERIMENT_PSYCHOPY_AU2220019_AU2220225,2024.2.4,59.91769705089021,2025-04-03 18h57.55.516345 +0530,
fear.jpg,f,52,4,8,f,1,0.43361950000144134,None,8,4,52,0,150.7990066000002,,,,,,,,,,,,,,,,150.7946367000004,150.7990066000002,152.29404009999962,152.29404009999962,152.31078479999996,,152.73182610000003,f,1,,0.43361950000144134,None,R65,114,2025-04-03_18h54.02.254,416_EXPERIMENT_PSYCHOPY_AU2220019_AU2220225,2024.2.4,59.91769705089021,2025-04-03 18h57.55.516345 +0530,
surprise_lower_blur.jpg,s,53,5,8,f,0,0.43826780000017607,None,8,5,53,5,152.75038309999945,,,,,,,,,,,,,,,,152.74579809999886,152.75038309999945,154.2436519999992,154.2436519999992,154.26093000000037,,154.69637309999962,f,0,,0.43826780000017607,None,R65,114,2025-04-03_18h54.02.254,416_EXPERIMENT_PSYCHOPY_AU2220019_AU2220225,2024.2.4,59.91769705089021,2025-04-03 18h57.55.516345 +0530,
surprise_lower_blur.jpg,s,54,0,9,f,0,0.32976549999875715,None,9,0,54,5,154.7159591999989,,,,,,,,,,,,,,,,154.71080979999897,154.7159591999989,156.21091069999966,156.21091069999966,156.22721209999872,,156.5463521999991,f,0,,0.32976549999875715,None,R65,114,2025-04-03_18h54.02.254,416_EXPERIMENT_PSYCHOPY_AU2220019_AU2220225,2024.2.4,59.91769705089021,2025-04-03 18h57.55.516345 +0530,
surprise_upper_blur.jpg,s,55,1,9,f,0,0.5142624000000069,None,9,1,55,4,156.56556749999982,,,,,,,,,,,,,,,,156.56063319999885,156.56556749999982,158.06137630000012,158.06137630000012,158.07826659999955,158.57714159999887,158.58411840000008,f,0,,0.5142624000000069,None,R65,114,2025-04-03_18h54.02.254,416_EXPERIMENT_PSYCHOPY_AU2220019_AU2220225,2024.2.4,59.91769705089021,2025-04-03 18h57.55.516345 +0530,
fear.jpg,f,56,2,9,None,0,,,9,2,56,0,158.6315429999995,,,,,,,,,,,,,,,,158.61665829999947,158.6315429999995,160.09414639999886,160.09414639999886,160.14425449999908,160.5944660999994,160.8445112999998,None,0,,,,R65,114,2025-04-03_18h54.02.254,416_EXPERIMENT_PSYCHOPY_AU2220019_AU2220225,2024.2.4,59.91769705089021,2025-04-03 18h57.55.516345 +0530,
fear_upper_blur.jpg,f,57,3,9,f,1,0.24826219999886234,None,9,3,57,2,160.8608423000005,,,,,,,,,,,,,,,,160.85605509999914,160.8608423000005,162.344304799999,162.344304799999,162.3602762999999,,162.59677139999985,f,1,,0.24826219999886234,None,R65,114,2025-04-03_18h54.02.254,416_EXPERIMENT_PSYCHOPY_AU2220019_AU2220225,2024.2.4,59.91769705089021,2025-04-03 18h57.55.516345 +0530,
fear_lower_blur.jpg,f,58,4,9,f,1,0.24508590000004915,None,9,4,58,3,162.6159289999996,,,,,,,,,,,,,,,,162.61039039999923,162.6159289999996,164.11110689999987,164.11110689999987,164.12779539999974,,164.36265739999908,f,1,,0.24508590000004915,None,R65,114,2025-04-03_18h54.02.254,416_EXPERIMENT_PSYCHOPY_AU2220019_AU2220225,2024.2.4,59.91769705089021,2025-04-03 18h57.55.516345 +0530,
surprise.jpg,s,59,5,9,s,1,0.5504953999989084,None,9,5,59,1,164.38288949999878,,,,,,,,,,,,,,,,164.37781240000004,164.38288949999878,165.87719929999912,165.87719929999912,165.89349049999873,166.37721859999874,166.4351227999996,s,1,,0.5504953999989084,None,R65,114,2025-04-03_18h54.02.254,416_EXPERIMENT_PSYCHOPY_AU2220019_AU2220225,2024.2.4,59.91769705089021,2025-04-03 18h57.55.516345 +0530,
surprise.jpg,s,60,0,10,s,1,0.32342120000066643,None,10,0,60,1,166.47856609999872,,,,,,,,,,,,,,,,166.4678856999999,166.47856609999872,167.94436180000048,167.94436180000048,167.97769049999988,,168.28042689999893,s,1,,0.32342120000066643,None,R65,114,2025-04-03_18h54.02.254,416_EXPERIMENT_PSYCHOPY_AU2220019_AU2220225,2024.2.4,59.91769705089021,2025-04-03 18h57.55.516345 +0530,
surprise_upper_blur.jpg,s,61,1,10,s,1,0.3748823000005359,None,10,1,61,4,168.29895169999872,,,,,,,,,,,,,,,,168.29386909999994,168.29895169999872,169.7942468000001,169.7942468000001,169.81075899999996,,170.18229239999891,s,1,,0.3748823000005359,None,R65,114,2025-04-03_18h54.02.254,416_EXPERIMENT_PSYCHOPY_AU2220019_AU2220225,2024.2.4,59.91769705089021,2025-04-03 18h57.55.516345 +0530,
fear_lower_blur.jpg,f,62,2,10,s,0,0.3816389000003255,None,10,2,62,3,170.22184689999995,,,,,,,,,,,,,,,,170.21151219999956,170.22184689999995,171.69388339999932,171.69388339999932,171.72721529999944,,172.08427680000023,s,0,,0.3816389000003255,None,R65,114,2025-04-03_18h54.02.254,416_EXPERIMENT_PSYCHOPY_AU2220019_AU2220225,2024.2.4,59.91769705089021,2025-04-03 18h57.55.516345 +0530,
surprise_lower_blur.jpg,s,63,3,10,f,0,0.605627299999469,None,10,3,63,5,172.12545229999887,,,,,,,,,,,,,,,,172.11451920000036,172.12545229999887,173.59424489999947,173.59424489999947,173.6273272999988,174.0936254999997,174.21794520000003,f,0,,0.605627299999469,None,R65,114,2025-04-03_18h54.02.254,416_EXPERIMENT_PSYCHOPY_AU2220019_AU2220225,2024.2.4,59.91769705089021,2025-04-03 18h57.55.516345 +0530,
fear_upper_blur.jpg,f,64,4,10,None,0,,,10,4,64,2,174.23665529999926,,,,,,,,,,,,,,,,174.23179170000003,174.23665529999926,175.7275897999989,175.7275897999989,175.7444486000004,176.22686149999936,176.46143309999934,None,0,176.4804793000003,,,R65,114,2025-04-03_18h54.02.254,416_EXPERIMENT_PSYCHOPY_AU2220019_AU2220225,2024.2.4,59.91769705089021,2025-04-03 18h57.55.516345 +0530,
fear.jpg,f,65,5,10,f,1,0.47271569999975327,None,10,5,65,0,176.4804793000003,,,,,,,,,,,,,,,,176.47663280000052,176.4804793000003,177.97701939999934,177.97701939999934,177.99392129999978,178.48077430000012,178.46352239999942,f,1,,0.47271569999975327,None,R65,114,2025-04-03_18h54.02.254,416_EXPERIMENT_PSYCHOPY_AU2220019_AU2220225,2024.2.4,59.91769705089021,2025-04-03 18h57.55.516345 +0530,
fear.jpg,f,66,0,11,s,0,0.4901345999987825,None,11,0,66,0,178.48077430000012,,,,,,,,,,,,,,,,178.47569219999968,178.48077430000012,179.97733890000018,179.97733890000018,179.99353530000008,180.47649499999898,180.4786267999989,s,0,,0.4901345999987825,None,R65,114,2025-04-03_18h54.02.254,416_EXPERIMENT_PSYCHOPY_AU2220019_AU2220225,2024.2.4,59.91769705089021,2025-04-03 18h57.55.516345 +0530,
surprise_upper_blur.jpg,s,67,1,11,f,0,0.34589800000139803,None,11,1,67,4,180.49782699999923,,,,,,,,,,,,,,,,180.49356210000042,180.49782699999923,181.99430519999987,181.99430519999987,182.01106079999954,,182.3462682999998,f,0,,0.34589800000139803,None,R65,114,2025-04-03_18h54.02.254,416_EXPERIMENT_PSYCHOPY_AU2220019_AU2220225,2024.2.4,59.91769705089021,2025-04-03 18h57.55.516345 +0530,
surprise.jpg,s,68,2,11,None,0,,,11,2,68,1,182.36528309999994,,,,,,,,,,,,,,,,182.36072849999982,182.36528309999994,183.8603583999993,183.8603583999993,183.8771201999989,184.3600568999991,184.59447329999966,None,0,184.6129846999993,,,R65,114,2025-04-03_18h54.02.254,416_EXPERIMENT_PSYCHOPY_AU2220019_AU2220225,2024.2.4,59.91769705089021,2025-04-03 18h57.55.516345 +0530,
fear_upper_blur.jpg,f,69,3,11,f,1,0.2371220999993966,None,11,3,69,2,184.6129846999993,,,,,,,,,,,,,,,,184.60882929999934,184.6129846999993,186.11044779999975,186.11044779999975,186.12712649999958,,186.36299689999942,f,1,,0.2371220999993966,None,R65,114,2025-04-03_18h54.02.254,416_EXPERIMENT_PSYCHOPY_AU2220019_AU2220225,2024.2.4,59.91769705089021,2025-04-03 18h57.55.516345 +0530,
fear_lower_blur.jpg,f,70,4,11,s,0,0.3628461000007519,None,11,4,70,3,186.3823558999993,,,,,,,,,,,,,,,,186.37728739999875,186.3823558999993,187.8773111999999,187.8773111999999,187.89382399999886,,188.25104759999886,s,0,,0.3628461000007519,None,R65,114,2025-04-03_18h54.02.254,416_EXPERIMENT_PSYCHOPY_AU2220019_AU2220225,2024.2.4,59.91769705089021,2025-04-03 18h57.55.516345 +0530,
surprise_lower_blur.jpg,s,71,5,11,s,1,0.3168409000008978,None,11,5,71,5,188.28868599999987,,,,,,,,,,,,,,,,188.27825630000007,188.28868599999987,189.7602138000002,189.7602138000002,189.79389959999935,,190.08085649999884,s,1,,0.3168409000008978,None,R65,114,2025-04-03_18h54.02.254,416_EXPERIMENT_PSYCHOPY_AU2220019_AU2220225,2024.2.4,59.91769705089021,2025-04-03 18h57.55.516345 +0530,
fear_lower_blur.jpg,f,72,0,12,f,1,0.580206000000544,None,12,0,72,3,190.11684969999988,,,,,,,,,,,,,,,,190.1051625,190.11684969999988,191.59355379999943,191.59355379999943,191.62640660000034,192.09388930000023,192.18247119999978,f,1,,0.580206000000544,None,R65,114,2025-04-03_18h54.02.254,416_EXPERIMENT_PSYCHOPY_AU2220019_AU2220225,2024.2.4,59.91769705089021,2025-04-03 18h57.55.516345 +0530,
surprise_lower_blur.jpg,s,73,1,12,f,0,0.4529056999999739,None,12,1,73,5,192.2188260999992,,,,,,,,,,,,,,,,192.20864599999913,192.2188260999992,193.6938011000002,193.6938011000002,193.7268681000005,,194.16677460000028,f,0,,0.4529056999999739,None,R65,114,2025-04-03_18h54.02.254,416_EXPERIMENT_PSYCHOPY_AU2220019_AU2220225,2024.2.4,59.91769705089021,2025-04-03 18h57.55.516345 +0530,
fear.jpg,f,74,2,12,s,0,0.6017231999994692,None,12,2,74,0,194.1987769999996,,,,,,,,,,,,,,,,194.1913629999999,194.1987769999996,195.67712550000033,195.67712550000033,195.7102395999991,196.17701469999884,196.2863381999996,s,0,,0.6017231999994692,None,R65,114,2025-04-03_18h54.02.254,416_EXPERIMENT_PSYCHOPY_AU2220019_AU2220225,2024.2.4,59.91769705089021,2025-04-03 18h57.55.516345 +0530,
fear_upper_blur.jpg,f,75,3,12,f,1,0.3291282999998657,None,12,3,75,2,196.32780889999958,,,,,,,,,,,,,,,,196.3169012999988,196.32780889999958,197.79396239999915,197.79396239999915,197.8267978999993,,198.13347839999915,f,1,,0.3291282999998657,None,R65,114,2025-04-03_18h54.02.254,416_EXPERIMENT_PSYCHOPY_AU2220019_AU2220225,2024.2.4,59.91769705089021,2025-04-03 18h57.55.516345 +0530,
surprise.jpg,s,76,4,12,s,1,0.3898358000005828,None,12,4,76,1,198.1692882999996,,,,,,,,,,,,,,,,198.1629026999999,198.1692882999996,199.6437052000001,199.6437052000001,199.67695549999917,,200.05278089999956,s,1,,0.3898358000005828,None,R65,114,2025-04-03_18h54.02.254,416_EXPERIMENT_PSYCHOPY_AU2220019_AU2220225,2024.2.4,59.91769705089021,2025-04-03 18h57.55.516345 +0530,
surprise_upper_blur.jpg,s,77,5,12,s,1,0.6323716999995668,None,12,5,77,4,200.08785009999883,,,,,,,,,,,,,,,,200.08148129999972,200.08785009999883,201.5609199999999,201.5609199999999,201.59406409999974,202.0601045000003,202.19749909999882,s,1,,0.6323716999995668,None,R65,114,2025-04-03_18h54.02.254,416_EXPERIMENT_PSYCHOPY_AU2220019_AU2220225,2024.2.4,59.91769705089021,2025-04-03 18h57.55.516345 +0530,
fear_lower_blur.jpg,f,78,0,13,None,0,,,13,0,78,3,202.21728950000033,,,,,,,,,,,,,,,,202.21231760000046,202.21728950000033,203.71098859999984,203.71098859999984,203.72766059999958,204.2105002999997,204.44532289999916,None,0,204.46150239999952,,,R65,114,2025-04-03_18h54.02.254,416_EXPERIMENT_PSYCHOPY_AU2220019_AU2220225,2024.2.4,59.91769705089021,2025-04-03 18h57.55.516345 +0530,
surprise.jpg,s,79,1,13,None,0,,,13,1,79,1,204.46150239999952,,,,,,,,,,,,,,,,204.4577625999991,204.46150239999952,205.96048669999982,205.96048669999982,205.96048669999982,206.46039930000006,206.6974422000003,None,0,206.73770179999883,,,R65,114,2025-04-03_18h54.02.254,416_EXPERIMENT_PSYCHOPY_AU2220019_AU2220225,2024.2.4,59.91769705089021,2025-04-03 18h57.55.516345 +0530,
fear.jpg,f,80,2,13,f,1,0.30301439999857394,None,13,2,80,0,206.73770179999883,,,,,,,,,,,,,,,,206.7285625000004,206.73770179999883,208.21065799999997,208.21065799999997,208.24544979999882,,208.5284673999995,f,1,,0.30301439999857394,None,R65,114,2025-04-03_18h54.02.254,416_EXPERIMENT_PSYCHOPY_AU2220019_AU2220225,2024.2.4,59.91769705089021,2025-04-03 18h57.55.516345 +0530,
surprise_upper_blur.jpg,s,81,3,13,s,1,0.49751199999991513,None,13,3,81,4,208.56068529999902,,,,,,,,,,,,,,,,208.55064899999888,208.56068529999902,210.04400669999995,210.04400669999995,210.06031809999877,210.5433226999994,210.5464025000001,s,1,,0.49751199999991513,None,R65,114,2025-04-03_18h54.02.254,416_EXPERIMENT_PSYCHOPY_AU2220019_AU2220225,2024.2.4,59.91769705089021,2025-04-03 18h57.55.516345 +0530,
surprise_lower_blur.jpg,s,82,4,13,f,0,0.6556844000006095,None,13,4,82,5,210.56299489999947,,,,,,,,,,,,,,,,210.5576987000004,210.56299489999947,212.0605918000001,212.0605918000001,212.07736529999966,212.5603900999995,212.73199860000022,f,0,,0.6556844000006095,None,R65,114,2025-04-03_18h54.02.254,416_EXPERIMENT_PSYCHOPY_AU2220019_AU2220225,2024.2.4,59.91769705089021,2025-04-03 18h57.55.516345 +0530,
fear_upper_blur.jpg,f,83,5,13,s,0,0.6111708999997063,None,13,5,83,2,212.7736857,,,,,,,,,,,,,,,,212.762806499999,212.7736857,214.2443562999997,214.2443562999997,214.27729439999894,214.7428474999997,214.86562849999973,s,0,,0.6111708999997063,None,R65,114,2025-04-03_18h54.02.254,416_EXPERIMENT_PSYCHOPY_AU2220019_AU2220225,2024.2.4,59.91769705089021,2025-04-03 18h57.55.516345 +0530,
fear_upper_blur.jpg,f,84,0,14,f,1,0.45187559999976656,None,14,0,84,2,214.9085957999996,,,,,,,,,,,,,,,,214.8979674000002,214.9085957999996,216.37727470000027,216.37727470000027,216.41110789999948,,216.83981060000042,f,1,,0.45187559999976656,None,R65,114,2025-04-03_18h54.02.254,416_EXPERIMENT_PSYCHOPY_AU2220019_AU2220225,2024.2.4,59.91769705089021,2025-04-03 18h57.55.516345 +0530,
fear_lower_blur.jpg,f,85,1,14,f,1,0.2349066999995557,None,14,1,85,3,216.86438780000026,,,,,,,,,,,,,,,,216.8591053,216.86438780000026,218.34392630000002,218.34392630000002,218.37700500000028,,218.5823339999988,f,1,,0.2349066999995557,None,R65,114,2025-04-03_18h54.02.254,416_EXPERIMENT_PSYCHOPY_AU2220019_AU2220225,2024.2.4,59.91769705089021,2025-04-03 18h57.55.516345 +0530,
surprise.jpg,s,86,2,14,f,0,0.48038199999973585,None,14,2,86,1,218.6236353000004,,,,,,,,,,,,,,,,218.6103234000002,218.6236353000004,220.0950314999991,220.0950314999991,220.1280416999998,220.60089580000022,220.5803046000001,f,0,,0.48038199999973585,None,R65,114,2025-04-03_18h54.02.254,416_EXPERIMENT_PSYCHOPY_AU2220019_AU2220225,2024.2.4,59.91769705089021,2025-04-03 18h57.55.516345 +0530,
fear.jpg,f,87,3,14,s,0,0.36823739999999816,None,14,3,87,0,220.60089580000022,,,,,,,,,,,,,,,,220.59568509999917,220.60089580000022,222.09432269999888,222.09432269999888,222.11018449999938,,222.46970359999978,s,0,,0.36823739999999816,None,R65,114,2025-04-03_18h54.02.254,416_EXPERIMENT_PSYCHOPY_AU2220019_AU2220225,2024.2.4,59.91769705089021,2025-04-03 18h57.55.516345 +0530,
surprise_lower_blur.jpg,s,88,4,14,f,0,0.6401413999992656,None,14,4,88,5,222.50567179999962,,,,,,,,,,,,,,,,222.49645899999996,222.50567179999962,223.97804039999937,223.97804039999937,224.01070230000005,224.47704609999892,224.6335428000002,f,0,,0.6401413999992656,None,R65,114,2025-04-03_18h54.02.254,416_EXPERIMENT_PSYCHOPY_AU2220019_AU2220225,2024.2.4,59.91769705089021,2025-04-03 18h57.55.516345 +0530,
surprise_upper_blur.jpg,s,89,5,14,s,1,0.4398228999998537,None,14,5,89,4,224.67740819999926,,,,,,,,,,,,,,,,224.66389589999926,224.67740819999926,226.1432246000004,226.1432246000004,226.17782719999923,,226.5947398999997,s,1,,0.4398228999998537,None,R65,114,2025-04-03_18h54.02.254,416_EXPERIMENT_PSYCHOPY_AU2220019_AU2220225,2024.2.4,59.91769705089021,2025-04-03 18h57.55.516345 +0530,
surprise_upper_blur.jpg,s,90,0,15,s,1,0.5099810000010621,None,15,0,90,4,226.6133178,,,,,,,,,,,,,,,,226.60855789999914,226.6133178,228.1108519999998,228.1108519999998,228.12754940000013,228.609796499999,228.62878909999927,s,1,,0.5099810000010621,None,R65,114,2025-04-03_18h54.02.254,416_EXPERIMENT_PSYCHOPY_AU2220019_AU2220225,2024.2.4,59.91769705089021,2025-04-03 18h57.55.516345 +0530,
fear_upper_blur.jpg,f,91,1,15,f,1,0.353140600000188,None,15,1,91,2,228.6478122999997,,,,,,,,,,,,,,,,228.64263299999948,228.6478122999997,230.14428459999908,230.14428459999908,230.16239700000006,,230.51573619999908,f,1,,0.353140600000188,None,R65,114,2025-04-03_18h54.02.254,416_EXPERIMENT_PSYCHOPY_AU2220019_AU2220225,2024.2.4,59.91769705089021,2025-04-03 18h57.55.516345 +0530,
fear.jpg,f,92,2,15,f,1,0.4125326000012137,None,15,2,92,0,230.54766219999874,,,,,,,,,,,,,,,,230.54059769999913,230.54766219999874,232.02774659999886,232.02774659999886,232.06062439999914,,232.44681049999963,f,1,,0.4125326000012137,None,R65,114,2025-04-03_18h54.02.254,416_EXPERIMENT_PSYCHOPY_AU2220019_AU2220225,2024.2.4,59.91769705089021,2025-04-03 18h57.55.516345 +0530,
surprise.jpg,s,93,3,15,f,0,0.5933409000008396,None,15,3,93,1,232.46487349999916,,,,,,,,,,,,,,,,232.45934379999926,232.46487349999916,233.96071759999904,233.96071759999904,233.97747849999905,234.46110269999917,234.56236460000036,f,0,,0.5933409000008396,None,R65,114,2025-04-03_18h54.02.254,416_EXPERIMENT_PSYCHOPY_AU2220019_AU2220225,2024.2.4,59.91769705089021,2025-04-03 18h57.55.516345 +0530,
fear_lower_blur.jpg,f,94,4,15,s,0,0.41667769999912707,None,15,4,94,3,234.57912020000003,,,,,,,,,,,,,,,,234.57457179999983,234.57912020000003,236.07706139999937,236.07706139999937,236.09397759999956,,236.4979172000003,s,0,,0.41667769999912707,None,R65,114,2025-04-03_18h54.02.254,416_EXPERIMENT_PSYCHOPY_AU2220019_AU2220225,2024.2.4,59.91769705089021,2025-04-03 18h57.55.516345 +0530,
surprise_lower_blur.jpg,s,95,5,15,f,0,0.2910974000005808,None,15,5,95,5,236.51683199999934,,,,,,,,,,,,,,,,236.51231969999935,236.51683199999934,238.0118438999998,238.0118438999998,238.0276477999996,,238.3144016999995,f,0,,0.2910974000005808,None,R65,114,2025-04-03_18h54.02.254,416_EXPERIMENT_PSYCHOPY_AU2220019_AU2220225,2024.2.4,59.91769705089021,2025-04-03 18h57.55.516345 +0530,
surprise_upper_blur.jpg,s,96,0,16,f,0,0.37607759999991686,None,16,0,96,4,238.33283370000026,,,,,,,,,,,,,,,,238.3280625999996,238.33283370000026,239.82766439999978,239.82766439999978,239.84431219999897,,240.21245669999917,f,0,,0.37607759999991686,None,R65,114,2025-04-03_18h54.02.254,416_EXPERIMENT_PSYCHOPY_AU2220019_AU2220225,2024.2.4,59.91769705089021,2025-04-03 18h57.55.516345 +0530,
surprise.jpg,s,97,1,16,f,0,0.056510700000217184,None,16,1,97,1,240.23093919999883,,,,,,,,,,,,,,,,240.22629439999946,240.23093919999883,241.72696170000017,241.72696170000017,241.74332119999963,,241.7974106999991,f,0,,0.056510700000217184,None,R65,114,2025-04-03_18h54.02.254,416_EXPERIMENT_PSYCHOPY_AU2220019_AU2220225,2024.2.4,59.91769705089021,2025-04-03 18h57.55.516345 +0530,
surprise_lower_blur.jpg,s,98,2,16,None,0,,,16,2,98,5,241.81662499999948,,,,,,,,,,,,,,,,241.81167959999948,241.81662499999948,243.31145300000026,243.31145300000026,243.3285493000003,243.81048639999972,244.0454408000005,None,0,244.06478419999985,,,R65,114,2025-04-03_18h54.02.254,416_EXPERIMENT_PSYCHOPY_AU2220019_AU2220225,2024.2.4,59.91769705089021,2025-04-03 18h57.55.516345 +0530,
fear_lower_blur.jpg,f,99,3,16,s,0,0.5846351000000141,None,16,3,99,3,244.06478419999985,,,,,,,,,,,,,,,,244.06025559999944,244.06478419999985,245.56127949999973,245.56127949999973,245.5779265000001,246.06084120000014,246.16275459999997,s,0,,0.5846351000000141,None,R65,114,2025-04-03_18h54.02.254,416_EXPERIMENT_PSYCHOPY_AU2220019_AU2220225,2024.2.4,59.91769705089021,2025-04-03 18h57.55.516345 +0530,
fear_upper_blur.jpg,f,100,4,16,f,1,0.6641921999998885,None,16,4,100,2,246.18140959999982,,,,,,,,,,,,,,,,246.17651060000026,246.18140959999982,247.67779039999914,247.67779039999914,247.69481069999892,248.1767507000004,248.34694940000009,f,1,,0.6641921999998885,None,R65,114,2025-04-03_18h54.02.254,416_EXPERIMENT_PSYCHOPY_AU2220019_AU2220225,2024.2.4,59.91769705089021,2025-04-03 18h57.55.516345 +0530,
fear.jpg,f,101,5,16,f,1,0.41447560000051453,None,16,5,101,0,248.36633660000007,,,,,,,,,,,,,,,,248.36110980000012,248.36633660000007,249.86140890000024,249.86140890000024,249.8777087999988,,250.28083200000037,f,1,,0.41447560000051453,None,R65,114,2025-04-03_18h54.02.254,416_EXPERIMENT_PSYCHOPY_AU2220019_AU2220225,2024.2.4,59.91769705089021,2025-04-03 18h57.55.516345 +0530,
surprise.jpg,s,102,0,17,None,0,,,17,0,102,1,250.29987739999888,,,,,,,,,,,,,,,,250.29539569999906,250.29987739999888,251.79376740000043,251.79376740000043,251.81002959999933,252.29422689999956,252.52907640000012,None,0,252.5473850999988,,,R65,114,2025-04-03_18h54.02.254,416_EXPERIMENT_PSYCHOPY_AU2220019_AU2220225,2024.2.4,59.91769705089021,2025-04-03 18h57.55.516345 +0530,
surprise_lower_blur.jpg,s,103,1,17,f,0,0.5545196000002761,None,17,1,103,5,252.5473850999988,,,,,,,,,,,,,,,,252.54299429999992,252.5473850999988,254.04488200000014,254.04488200000014,254.06103689999873,254.54429589999927,254.61309090000032,f,0,,0.5545196000002761,None,R65,114,2025-04-03_18h54.02.254,416_EXPERIMENT_PSYCHOPY_AU2220019_AU2220225,2024.2.4,59.91769705089021,2025-04-03 18h57.55.516345 +0530,
fear_lower_blur.jpg,f,104,2,17,f,1,0.3891430000003311,None,17,2,104,3,254.63231189999897,,,,,,,,,,,,,,,,254.62736779999977,254.63231189999897,256.1278003999996,256.1278003999996,256.14428789999874,,256.5306467999999,f,1,,0.3891430000003311,None,R65,114,2025-04-03_18h54.02.254,416_EXPERIMENT_PSYCHOPY_AU2220019_AU2220225,2024.2.4,59.91769705089021,2025-04-03 18h57.55.516345 +0530,
surprise_upper_blur.jpg,s,105,3,17,s,1,0.333723399999144,None,17,3,105,4,256.55113679999886,,,,,,,,,,,,,,,,256.54586910000035,256.55113679999886,258.0439624999999,258.0439624999999,258.0609057999991,,258.3818744,s,1,,0.333723399999144,None,R65,114,2025-04-03_18h54.02.254,416_EXPERIMENT_PSYCHOPY_AU2220019_AU2220225,2024.2.4,59.91769705089021,2025-04-03 18h57.55.516345 +0530,
fear.jpg,f,106,4,17,f,1,0.6261075000002165,None,17,4,106,0,258.40297719999944,,,,,,,,,,,,,,,,258.39765830000033,258.40297719999944,259.8941605,259.8941605,259.9108149999993,260.3935313000002,260.5292269999991,f,1,,0.6261075000002165,None,R65,114,2025-04-03_18h54.02.254,416_EXPERIMENT_PSYCHOPY_AU2220019_AU2220225,2024.2.4,59.91769705089021,2025-04-03 18h57.55.516345 +0530,
fear_upper_blur.jpg,f,107,5,17,f,1,0.3285328000001755,None,17,5,107,2,260.54841979999946,,,,,,,,,,,,,,,,260.54355849999956,260.54841979999946,262.0432882999994,262.0432882999994,262.05995169999915,,262.3793876999989,f,1,,0.3285328000001755,None,R65,114,2025-04-03_18h54.02.254,416_EXPERIMENT_PSYCHOPY_AU2220019_AU2220225,2024.2.4,59.91769705089021,2025-04-03 18h57.55.516345 +0530,
surprise.jpg,s,108,0,18,f,0,0.37935990000005404,None,18,0,108,1,262.39818360000027,,,,,,,,,,,,,,,,262.3938625999999,262.39818360000027,263.89446959999987,263.89446959999987,263.9102282999993,,264.2791118999994,f,0,,0.37935990000005404,None,R65,114,2025-04-03_18h54.02.254,416_EXPERIMENT_PSYCHOPY_AU2220019_AU2220225,2024.2.4,59.91769705089021,2025-04-03 18h57.55.516345 +0530,
surprise_lower_blur.jpg,s,109,1,18,f,0,0.34293869999964954,None,18,1,109,5,264.29679880000003,,,,,,,,,,,,,,,,264.292363999999,264.29679880000003,265.7938503000005,265.7938503000005,265.8104227999993,,266.14559220000046,f,0,,0.34293869999964954,None,R65,114,2025-04-03_18h54.02.254,416_EXPERIMENT_PSYCHOPY_AU2220019_AU2220225,2024.2.4,59.91769705089021,2025-04-03 18h57.55.516345 +0530,
fear_lower_blur.jpg,f,110,2,18,s,0,0.7090162000004057,None,18,2,110,3,266.1650353999994,,,,,,,,,,,,,,,,266.15990969999984,266.1650353999994,267.66064129999904,267.66064129999904,267.6777901000005,268.16023119999954,268.3787647999998,s,0,,0.7090162000004057,None,R65,114,2025-04-03_18h54.02.254,416_EXPERIMENT_PSYCHOPY_AU2220019_AU2220225,2024.2.4,59.91769705089021,2025-04-03 18h57.55.516345 +0530,
surprise_upper_blur.jpg,s,111,3,18,None,0,,,18,3,111,4,268.3979593999993,,,,,,,,,,,,,,,,268.39312189999873,268.3979593999993,269.89384489999975,269.89384489999975,269.9104817999996,270.3938299000001,270.62836889999926,None,0,270.64593459999924,,,R65,114,2025-04-03_18h54.02.254,416_EXPERIMENT_PSYCHOPY_AU2220019_AU2220225,2024.2.4,59.91769705089021,2025-04-03 18h57.55.516345 +0530,
fear_upper_blur.jpg,f,112,4,18,None,0,,,18,4,112,2,270.64593459999924,,,,,,,,,,,,,,,,270.6421943999994,270.64593459999924,272.14450039999974,272.14450039999974,272.1602535999991,272.64353239999946,272.89388099999996,None,0,,,,R65,114,2025-04-03_18h54.02.254,416_EXPERIMENT_PSYCHOPY_AU2220019_AU2220225,2024.2.4,59.91769705089021,2025-04-03 18h57.55.516345 +0530,
fear.jpg,f,113,5,18,f,1,0.3683715999995911,None,18,5,113,0,272.91315419999955,,,,,,,,,,,,,,,,272.9079392000003,272.91315419999955,274.3938464999992,274.3938464999992,274.4271394999996,,274.77820189999875,f,1,,0.3683715999995911,None,R65,114,2025-04-03_18h54.02.254,416_EXPERIMENT_PSYCHOPY_AU2220019_AU2220225,2024.2.4,59.91769705089021,2025-04-03 18h57.55.516345 +0530,
surprise.jpg,s,114,0,19,s,1,0.3360785999993823,None,19,0,114,1,274.7929865999995,,,,,,,,,,,,,,,,274.78793479999877,274.7929865999995,276.29449919999934,276.29449919999934,276.29449919999934,,276.64796790000037,s,1,,0.3360785999993823,None,R65,114,2025-04-03_18h54.02.254,416_EXPERIMENT_PSYCHOPY_AU2220019_AU2220225,2024.2.4,59.91769705089021,2025-04-03 18h57.55.516345 +0530,
fear_lower_blur.jpg,f,115,1,19,f,1,0.6201747000013711,None,19,1,115,3,276.6655590999999,,,,,,,,,,,,,,,,276.6609305999991,276.6655590999999,278.1606295999991,278.1606295999991,278.1774019000004,278.6600911000005,278.79601919999914,f,1,,0.6201747000013711,None,R65,114,2025-04-03_18h54.02.254,416_EXPERIMENT_PSYCHOPY_AU2220019_AU2220225,2024.2.4,59.91769705089021,2025-04-03 18h57.55.516345 +0530,
fear.jpg,f,116,2,19,s,0,0.3554428999996162,None,19,2,116,0,278.8156249999993,,,,,,,,,,,,,,,,278.810632499999,278.8156249999993,280.3105403999998,280.3105403999998,280.32737839999936,,280.67820140000003,s,0,,0.3554428999996162,None,R65,114,2025-04-03_18h54.02.254,416_EXPERIMENT_PSYCHOPY_AU2220019_AU2220225,2024.2.4,59.91769705089021,2025-04-03 18h57.55.516345 +0530,
surprise_upper_blur.jpg,s,117,3,19,s,1,0.5828336000013223,None,19,3,117,4,280.6933664999997,,,,,,,,,,,,,,,,280.6871486,280.6933664999997,282.1941018999987,282.1941018999987,282.1941018999987,282.69335219999994,282.7809629000003,s,1,,0.5828336000013223,None,R65,114,2025-04-03_18h54.02.254,416_EXPERIMENT_PSYCHOPY_AU2220019_AU2220225,2024.2.4,59.91769705089021,2025-04-03 18h57.55.516345 +0530,
fear_upper_blur.jpg,f,118,4,19,f,1,0.5752524999988964,None,19,4,118,2,282.7996385999995,,,,,,,,,,,,,,,,282.7948892000004,282.7996385999995,284.2938061999994,284.2938061999994,284.31084329999976,284.7945956000003,284.8790582999991,f,1,,0.5752524999988964,None,R65,114,2025-04-03_18h54.02.254,416_EXPERIMENT_PSYCHOPY_AU2220019_AU2220225,2024.2.4,59.91769705089021,2025-04-03 18h57.55.516345 +0530,
surprise_lower_blur.jpg,s,119,5,19,f,0,0.38922269999966375,None,19,5,119,5,284.8973176999989,,,,,,,,,,,,,,,,284.89274269999987,284.8973176999989,286.39407140000003,286.39407140000003,286.41043809999974,,286.79495789999964,f,0,,0.38922269999966375,None,R65,114,2025-04-03_18h54.02.254,416_EXPERIMENT_PSYCHOPY_AU2220019_AU2220225,2024.2.4,59.91769705089021,2025-04-03 18h57.55.516345 +0530,
