stimulus_image,correct_response,thisN,thisTrialN,thisRepN,key_resp.keys,key_resp.corr,key_resp.rt,key_resp.duration,loop.thisRepN,loop.thisTrialN,loop.thisN,loop.thisIndex,thisRow.t,notes,guide.started,instructions.started,ins_resp.started,guide.stopped,ins_resp.keys,ins_resp.rt,ins_resp.duration,guide_2.started,text.started,key_resp_2.started,guide_2.stopped,key_resp_2.keys,key_resp_2.rt,key_resp_2.duration,trial.started,fixation.started,image.started,key_resp.started,fixation.stopped,image.stopped,trial.stopped,loop.key_resp.keys,loop.key_resp.corr,key_resp.stopped,loop.key_resp.rt,loop.key_resp.duration,participant,session,date,expName,psychopyVersion,frameRate,expStart,
,,,,,,,,,,,,,,,0.004507699981331825,0.012508400017395616,0.012508400017395616,38.38165819994174,space,38.344680399866775,None,,,,,,,,,,,,,,,,,,,,RI22,108,2025-04-01_21h14.49.397,416_EXPERIMENT_PSYCHOPY_AU2220019_AU2220225,2024.2.4,119.82218408713848,2025-04-01 21h18.57.349249 +0530,
,,,,,,,,,,,,,,,,,,,,,,38.381983400089666,38.389290400082245,38.389290400082245,49.340721199987456,space,10.937523900065571,None,,,,,,,,,,,,,RI22,108,2025-04-01_21h14.49.397,416_EXPERIMENT_PSYCHOPY_AU2220019_AU2220225,2024.2.4,119.82218408713848,2025-04-01 21h18.57.349249 +0530,
surprise_upper_blur.jpg,s,0,0,0,None,0,,,0,0,0,4,49.47279020003043,,,,,,,,,,,,,,,,49.466283600078896,49.47279020003043,50.86745680007152,50.86745680007152,50.97186099993996,51.3719456999097,51.60505310003646,None,0,,,,RI22,108,2025-04-01_21h14.49.397,416_EXPERIMENT_PSYCHOPY_AU2220019_AU2220225,2024.2.4,119.82218408713848,2025-04-01 21h18.57.349249 +0530,
surprise.jpg,s,1,1,0,None,0,,,0,1,1,1,51.6289421999827,,,,,,,,,,,,,,,,51.62332660006359,51.6289421999827,53.1049434999004,53.1049434999004,53.138607299886644,53.6050624998752,53.839850599877536,None,0,53.86318659991957,,,RI22,108,2025-04-01_21h14.49.397,416_EXPERIMENT_PSYCHOPY_AU2220019_AU2220225,2024.2.4,119.82218408713848,2025-04-01 21h18.57.349249 +0530,
surprise_lower_blur.jpg,s,2,2,0,None,0,,,0,2,2,5,53.86318659991957,,,,,,,,,,,,,,,,53.85725639993325,53.86318659991957,55.3550305000972,55.3550305000972,55.37157030007802,55.8698136000894,56.089463399956,None,0,56.10839909990318,,,RI22,108,2025-04-01_21h14.49.397,416_EXPERIMENT_PSYCHOPY_AU2220019_AU2220225,2024.2.4,119.82218408713848,2025-04-01 21h18.57.349249 +0530,
fear.jpg,f,3,3,0,None,0,,,0,3,3,0,56.10839909990318,,,,,,,,,,,,,,,,56.104134399909526,56.10839909990318,57.603200800018385,57.603200800018385,57.619599299971014,58.10521549987607,58.33903650008142,None,0,58.35908009996638,,,RI22,108,2025-04-01_21h14.49.397,416_EXPERIMENT_PSYCHOPY_AU2220019_AU2220225,2024.2.4,119.82218408713848,2025-04-01 21h18.57.349249 +0530,
fear_lower_blur.jpg,f,4,4,0,s,0,0.5407082999590784,None,0,4,4,3,58.35908009996638,,,,,,,,,,,,,,,,58.35443049995229,58.35908009996638,59.85293890000321,59.85293890000321,59.869736100081354,60.352764199953526,60.40467519988306,s,0,,0.5407082999590784,None,RI22,108,2025-04-01_21h14.49.397,416_EXPERIMENT_PSYCHOPY_AU2220019_AU2220225,2024.2.4,119.82218408713848,2025-04-01 21h18.57.349249 +0530,
fear_upper_blur.jpg,f,5,5,0,s,0,0.5146949999034405,None,0,5,5,2,60.42749969987199,,,,,,,,,,,,,,,,60.421966299880296,60.42749969987199,61.905245000030845,61.905245000030845,61.93828619993292,62.41964960005134,62.42265950003639,s,0,,0.5146949999034405,None,RI22,108,2025-04-01_21h14.49.397,416_EXPERIMENT_PSYCHOPY_AU2220019_AU2220225,2024.2.4,119.82218408713848,2025-04-01 21h18.57.349249 +0530,
surprise.jpg,s,6,0,1,s,1,0.636055100010708,None,1,0,6,1,62.441814000019804,,,,,,,,,,,,,,,,62.43633179995231,62.441814000019804,63.93861089996062,63.93861089996062,63.95507379993796,64.43737949989736,64.58843109989539,s,1,,0.636055100010708,None,RI22,108,2025-04-01_21h14.49.397,416_EXPERIMENT_PSYCHOPY_AU2220019_AU2220225,2024.2.4,119.82218408713848,2025-04-01 21h18.57.349249 +0530,
surprise_lower_blur.jpg,s,7,1,1,s,1,0.4703746000304818,None,1,1,7,5,64.60473880008794,,,,,,,,,,,,,,,,64.59908499987796,64.60473880008794,66.08808859996498,66.08808859996498,66.1045434998814,66.59527379996143,66.57520899991505,s,1,,0.4703746000304818,None,RI22,108,2025-04-01_21h14.49.397,416_EXPERIMENT_PSYCHOPY_AU2220019_AU2220225,2024.2.4,119.82218408713848,2025-04-01 21h18.57.349249 +0530,
fear_upper_blur.jpg,f,8,2,1,f,1,0.5276202000677586,None,1,2,8,2,66.59527379996143,,,,,,,,,,,,,,,,66.58974920003675,66.59527379996143,68.08671549987048,68.08671549987048,68.10355850006454,68.5885677000042,68.6235738999676,f,1,,0.5276202000677586,None,RI22,108,2025-04-01_21h14.49.397,416_EXPERIMENT_PSYCHOPY_AU2220019_AU2220225,2024.2.4,119.82218408713848,2025-04-01 21h18.57.349249 +0530,
fear.jpg,f,9,3,1,s,0,0.49391520000062883,None,1,3,9,0,68.64372669998556,,,,,,,,,,,,,,,,68.63828320009634,68.64372669998556,70.13862970005721,70.13862970005721,70.15525340009481,70.63842299999669,70.64065669989213,s,0,,0.49391520000062883,None,RI22,108,2025-04-01_21h14.49.397,416_EXPERIMENT_PSYCHOPY_AU2220019_AU2220225,2024.2.4,119.82218408713848,2025-04-01 21h18.57.349249 +0530,
fear_lower_blur.jpg,f,10,4,1,s,0,0.44353209994733334,None,1,4,10,3,70.66049559996463,,,,,,,,,,,,,,,,70.65460020001046,70.66049559996463,72.15580770000815,72.15580770000815,72.17121440009214,,72.60715300007723,s,0,,0.44353209994733334,None,RI22,108,2025-04-01_21h14.49.397,416_EXPERIMENT_PSYCHOPY_AU2220019_AU2220225,2024.2.4,119.82218408713848,2025-04-01 21h18.57.349249 +0530,
surprise_upper_blur.jpg,s,11,5,1,s,1,0.3177926999051124,None,1,5,11,4,72.62559950002469,,,,,,,,,,,,,,,,72.62035389989614,72.62559950002469,74.11872999998741,74.11872999998741,74.13650029990822,,74.43913850001991,s,1,,0.3177926999051124,None,RI22,108,2025-04-01_21h14.49.397,416_EXPERIMENT_PSYCHOPY_AU2220019_AU2220225,2024.2.4,119.82218408713848,2025-04-01 21h18.57.349249 +0530,
surprise_lower_blur.jpg,s,12,0,2,s,1,0.3773189999628812,None,2,0,12,5,74.4588333000429,,,,,,,,,,,,,,,,74.45350489998236,74.4588333000429,75.93852009996772,75.93852009996772,75.97165880003013,,76.32119429996237,s,1,,0.3773189999628812,None,RI22,108,2025-04-01_21h14.49.397,416_EXPERIMENT_PSYCHOPY_AU2220019_AU2220225,2024.2.4,119.82218408713848,2025-04-01 21h18.57.349249 +0530,
fear_upper_blur.jpg,f,13,1,2,s,0,0.35927879996597767,None,2,1,13,2,76.34138270001858,,,,,,,,,,,,,,,,76.33510349993594,76.34138270001858,77.83706799987704,77.83706799987704,77.8537085999269,,78.2055851998739,s,0,,0.35927879996597767,None,RI22,108,2025-04-01_21h14.49.397,416_EXPERIMENT_PSYCHOPY_AU2220019_AU2220225,2024.2.4,119.82218408713848,2025-04-01 21h18.57.349249 +0530,
fear.jpg,f,14,2,2,s,0,0.4074675999581814,None,2,2,14,0,78.22523189987987,,,,,,,,,,,,,,,,78.22077429993078,78.22523189987987,79.7199095999822,79.7199095999822,79.73887509992346,,80.14075060002506,s,0,,0.4074675999581814,None,RI22,108,2025-04-01_21h14.49.397,416_EXPERIMENT_PSYCHOPY_AU2220019_AU2220225,2024.2.4,119.82218408713848,2025-04-01 21h18.57.349249 +0530,
fear_lower_blur.jpg,f,15,3,2,s,0,0.40260410006158054,None,2,3,15,3,80.15935069997795,,,,,,,,,,,,,,,,80.15349929989316,80.15935069997795,81.6526333000511,81.6526333000511,81.66981919994578,,82.05904789990745,s,0,,0.40260410006158054,None,RI22,108,2025-04-01_21h14.49.397,416_EXPERIMENT_PSYCHOPY_AU2220019_AU2220225,2024.2.4,119.82218408713848,2025-04-01 21h18.57.349249 +0530,
surprise_upper_blur.jpg,s,16,4,2,s,1,0.3747199000790715,None,2,4,16,4,82.07891319994815,,,,,,,,,,,,,,,,82.0731095999945,82.07891319994815,83.5711425000336,83.5711425000336,83.58849949995056,,83.95731319999322,s,1,,0.3747199000790715,None,RI22,108,2025-04-01_21h14.49.397,416_EXPERIMENT_PSYCHOPY_AU2220019_AU2220225,2024.2.4,119.82218408713848,2025-04-01 21h18.57.349249 +0530,
surprise.jpg,s,17,5,2,s,1,0.24580610007978976,None,2,5,17,1,83.97693519992754,,,,,,,,,,,,,,,,83.97148690000176,83.97693519992754,85.47196820005774,85.47196820005774,85.48846299992874,,85.72212309995666,s,1,,0.24580610007978976,None,RI22,108,2025-04-01_21h14.49.397,416_EXPERIMENT_PSYCHOPY_AU2220019_AU2220225,2024.2.4,119.82218408713848,2025-04-01 21h18.57.349249 +0530,
surprise_lower_blur.jpg,s,18,0,3,s,1,0.33909469982609153,None,3,0,18,5,85.74276859988458,,,,,,,,,,,,,,,,85.73622810002416,85.74276859988458,87.23717539990321,87.23717539990321,87.25367040000856,,87.59113619988784,s,1,,0.33909469982609153,None,RI22,108,2025-04-01_21h14.49.397,416_EXPERIMENT_PSYCHOPY_AU2220019_AU2220225,2024.2.4,119.82218408713848,2025-04-01 21h18.57.349249 +0530,
fear_upper_blur.jpg,f,19,1,3,s,0,0.3073068999219686,None,3,1,19,2,87.60991419991478,,,,,,,,,,,,,,,,87.60542099992745,87.60991419991478,89.10540529992431,89.10540529992431,89.12221549986862,,89.42448819987476,s,0,,0.3073068999219686,None,RI22,108,2025-04-01_21h14.49.397,416_EXPERIMENT_PSYCHOPY_AU2220019_AU2220225,2024.2.4,119.82218408713848,2025-04-01 21h18.57.349249 +0530,
surprise_upper_blur.jpg,s,20,2,3,s,1,0.28038819995708764,None,3,2,20,4,89.44369819993153,,,,,,,,,,,,,,,,89.43835909990594,89.44369819993153,90.93956299987622,90.93956299987622,90.9557886000257,,91.22483179997653,s,1,,0.28038819995708764,None,RI22,108,2025-04-01_21h14.49.397,416_EXPERIMENT_PSYCHOPY_AU2220019_AU2220225,2024.2.4,119.82218408713848,2025-04-01 21h18.57.349249 +0530,
surprise.jpg,s,21,3,3,s,1,0.3804303999058902,None,3,3,21,1,91.24481759988703,,,,,,,,,,,,,,,,91.23917190008797,91.24481759988703,92.73899849993177,92.73899849993177,92.7551285000518,,93.12415879988112,s,1,,0.3804303999058902,None,RI22,108,2025-04-01_21h14.49.397,416_EXPERIMENT_PSYCHOPY_AU2220019_AU2220225,2024.2.4,119.82218408713848,2025-04-01 21h18.57.349249 +0530,
fear_lower_blur.jpg,f,22,4,3,s,0,0.26856019999831915,None,3,4,22,3,93.14099780004472,,,,,,,,,,,,,,,,93.13522639987059,93.14099780004472,94.6353382000234,94.6353382000234,94.65279609989375,,94.90854809992015,s,0,,0.26856019999831915,None,RI22,108,2025-04-01_21h14.49.397,416_EXPERIMENT_PSYCHOPY_AU2220019_AU2220225,2024.2.4,119.82218408713848,2025-04-01 21h18.57.349249 +0530,
fear.jpg,f,23,5,3,s,0,0.27173639996908605,None,3,5,23,0,94.92876280006021,,,,,,,,,,,,,,,,94.92284859996289,94.92876280006021,96.42266909987666,96.42266909987666,96.43896909989417,,96.70520170009695,s,0,,0.27173639996908605,None,RI22,108,2025-04-01_21h14.49.397,416_EXPERIMENT_PSYCHOPY_AU2220019_AU2220225,2024.2.4,119.82218408713848,2025-04-01 21h18.57.349249 +0530,
fear.jpg,f,24,0,4,s,0,0.30306700011715293,None,4,0,24,0,96.72127850004472,,,,,,,,,,,,,,,,96.71563369990326,96.72127850004472,98.20481820008717,98.20481820008717,98.22154440009035,,98.52479860000312,s,0,,0.30306700011715293,None,RI22,108,2025-04-01_21h14.49.397,416_EXPERIMENT_PSYCHOPY_AU2220019_AU2220225,2024.2.4,119.82218408713848,2025-04-01 21h18.57.349249 +0530,
surprise_upper_blur.jpg,s,25,1,4,s,1,0.322266599861905,None,4,1,25,4,98.54442059993744,,,,,,,,,,,,,,,,98.53883469989523,98.54442059993744,100.03725990001112,100.03725990001112,100.05474669998512,,100.37470819987357,s,1,,0.322266599861905,None,RI22,108,2025-04-01_21h14.49.397,416_EXPERIMENT_PSYCHOPY_AU2220019_AU2220225,2024.2.4,119.82218408713848,2025-04-01 21h18.57.349249 +0530,
surprise.jpg,s,26,2,4,s,1,0.27954440005123615,None,4,2,26,1,100.39392869989388,,,,,,,,,,,,,,,,100.38907529995777,100.39392869989388,101.88861840008758,101.88861840008758,101.90600199997425,,102.17134030000307,s,1,,0.27954440005123615,None,RI22,108,2025-04-01_21h14.49.397,416_EXPERIMENT_PSYCHOPY_AU2220019_AU2220225,2024.2.4,119.82218408713848,2025-04-01 21h18.57.349249 +0530,
fear_upper_blur.jpg,f,27,3,4,s,0,0.3912850001361221,None,4,3,27,2,102.18739020009525,,,,,,,,,,,,,,,,102.18147270008922,102.18739020009525,103.67180990008637,103.67180990008637,103.68926219991408,,104.07224770006724,s,0,,0.3912850001361221,None,RI22,108,2025-04-01_21h14.49.397,416_EXPERIMENT_PSYCHOPY_AU2220019_AU2220225,2024.2.4,119.82218408713848,2025-04-01 21h18.57.349249 +0530,
fear_lower_blur.jpg,f,28,4,4,s,0,0.37177450000308454,None,4,4,28,3,104.09217120008543,,,,,,,,,,,,,,,,104.08642890001647,104.09217120008543,105.57238189992495,105.57238189992495,105.60557199991308,,105.95526680001058,s,0,,0.37177450000308454,None,RI22,108,2025-04-01_21h14.49.397,416_EXPERIMENT_PSYCHOPY_AU2220019_AU2220225,2024.2.4,119.82218408713848,2025-04-01 21h18.57.349249 +0530,
surprise_lower_blur.jpg,s,29,5,4,s,1,0.3856901000253856,None,4,5,29,5,105.97356990003027,,,,,,,,,,,,,,,,105.96760539989918,105.97356990003027,107.45760120009072,107.45760120009072,107.47188919992186,,107.85877020005137,s,1,,0.3856901000253856,None,RI22,108,2025-04-01_21h14.49.397,416_EXPERIMENT_PSYCHOPY_AU2220019_AU2220225,2024.2.4,119.82218408713848,2025-04-01 21h18.57.349249 +0530,
fear_upper_blur.jpg,f,30,0,5,s,0,0.35848650010302663,None,5,0,30,2,107.87972990004346,,,,,,,,,,,,,,,,107.87287209997885,107.87972990004346,109.37217850005254,109.37217850005254,109.3895028999541,,109.74123889999464,s,0,,0.35848650010302663,None,RI22,108,2025-04-01_21h14.49.397,416_EXPERIMENT_PSYCHOPY_AU2220019_AU2220225,2024.2.4,119.82218408713848,2025-04-01 21h18.57.349249 +0530,
fear.jpg,f,31,1,5,s,0,0.35700289998203516,None,5,1,31,0,109.7603029999882,,,,,,,,,,,,,,,,109.75453789997846,109.7603029999882,111.25289079989307,111.25289079989307,111.26950920000672,,111.62216700008139,s,0,,0.35700289998203516,None,RI22,108,2025-04-01_21h14.49.397,416_EXPERIMENT_PSYCHOPY_AU2220019_AU2220225,2024.2.4,119.82218408713848,2025-04-01 21h18.57.349249 +0530,
surprise.jpg,s,32,2,5,s,1,0.3816877999342978,None,5,2,32,1,111.64004369988106,,,,,,,,,,,,,,,,111.6341333000455,111.64004369988106,113.13627439993434,113.13627439993434,113.15385830006562,,113.52495369990356,s,1,,0.3816877999342978,None,RI22,108,2025-04-01_21h14.49.397,416_EXPERIMENT_PSYCHOPY_AU2220019_AU2220225,2024.2.4,119.82218408713848,2025-04-01 21h18.57.349249 +0530,
surprise_lower_blur.jpg,s,33,3,5,s,1,0.36475399998016655,None,5,3,33,5,113.54495429992676,,,,,,,,,,,,,,,,113.53906650003046,113.54495429992676,115.0386866000481,115.0386866000481,115.05502309999429,,115.4071055999957,s,1,,0.36475399998016655,None,RI22,108,2025-04-01_21h14.49.397,416_EXPERIMENT_PSYCHOPY_AU2220019_AU2220225,2024.2.4,119.82218408713848,2025-04-01 21h18.57.349249 +0530,
fear_lower_blur.jpg,f,34,4,5,s,0,0.29201540001668036,None,5,4,34,3,115.4272886000108,,,,,,,,,,,,,,,,115.42174510005862,115.4272886000108,116.92185979988426,116.92185979988426,116.93831770005636,,117.22366259992123,s,0,,0.29201540001668036,None,RI22,108,2025-04-01_21h14.49.397,416_EXPERIMENT_PSYCHOPY_AU2220019_AU2220225,2024.2.4,119.82218408713848,2025-04-01 21h18.57.349249 +0530,
surprise_upper_blur.jpg,s,35,5,5,s,1,0.3271951999049634,None,5,5,35,4,117.24391019996256,,,,,,,,,,,,,,,,117.2378712000791,117.24391019996256,118.73829760006629,118.73829760006629,118.75506359990686,,119.07429579994641,s,1,,0.3271951999049634,None,RI22,108,2025-04-01_21h14.49.397,416_EXPERIMENT_PSYCHOPY_AU2220019_AU2220225,2024.2.4,119.82218408713848,2025-04-01 21h18.57.349249 +0530,
surprise_lower_blur.jpg,s,36,0,6,s,1,0.36043539992533624,None,6,0,36,5,119.09427040000446,,,,,,,,,,,,,,,,119.08895569993183,119.09427040000446,120.58702289988287,120.58702289988287,120.60254279989749,,120.95721050002612,s,1,,0.36043539992533624,None,RI22,108,2025-04-01_21h14.49.397,416_EXPERIMENT_PSYCHOPY_AU2220019_AU2220225,2024.2.4,119.82218408713848,2025-04-01 21h18.57.349249 +0530,
surprise.jpg,s,37,1,6,s,1,0.34891169983893633,None,6,1,37,1,120.97781020007096,,,,,,,,,,,,,,,,120.97206449997611,120.97781020007096,122.47182819992304,122.47182819992304,122.4884273998905,,122.8246458999347,s,1,,0.34891169983893633,None,RI22,108,2025-04-01_21h14.49.397,416_EXPERIMENT_PSYCHOPY_AU2220019_AU2220225,2024.2.4,119.82218408713848,2025-04-01 21h18.57.349249 +0530,
fear.jpg,f,38,2,6,s,0,0.34329640003852546,None,6,2,38,0,122.84554550005123,,,,,,,,,,,,,,,,122.83899459987879,122.84554550005123,124.33638820005581,124.33638820005581,124.35297650005668,,124.6898481999524,s,0,,0.34329640003852546,None,RI22,108,2025-04-01_21h14.49.397,416_EXPERIMENT_PSYCHOPY_AU2220019_AU2220225,2024.2.4,119.82218408713848,2025-04-01 21h18.57.349249 +0530,
surprise_upper_blur.jpg,s,39,3,6,s,1,0.3609813000075519,None,6,3,39,4,124.7053493000567,,,,,,,,,,,,,,,,124.70009270007722,124.7053493000567,126.20281159994192,126.20281159994192,126.21953179989941,,126.57162100006826,s,1,,0.3609813000075519,None,RI22,108,2025-04-01_21h14.49.397,416_EXPERIMENT_PSYCHOPY_AU2220019_AU2220225,2024.2.4,119.82218408713848,2025-04-01 21h18.57.349249 +0530,
fear_upper_blur.jpg,f,40,4,6,s,0,0.4069136001635343,None,6,4,40,2,126.58999840007164,,,,,,,,,,,,,,,,126.58470369991846,126.58999840007164,128.07139749987982,128.07139749987982,128.10320449993014,,128.4904988000635,s,0,,0.4069136001635343,None,RI22,108,2025-04-01_21h14.49.397,416_EXPERIMENT_PSYCHOPY_AU2220019_AU2220225,2024.2.4,119.82218408713848,2025-04-01 21h18.57.349249 +0530,
fear_lower_blur.jpg,f,41,5,6,s,0,0.36243179999291897,None,6,5,41,3,128.50857870001346,,,,,,,,,,,,,,,,128.50374129996635,128.50857870001346,130.00439379992895,130.00439379992895,130.02201689989306,,130.3743300999049,s,0,,0.36243179999291897,None,RI22,108,2025-04-01_21h14.49.397,416_EXPERIMENT_PSYCHOPY_AU2220019_AU2220225,2024.2.4,119.82218408713848,2025-04-01 21h18.57.349249 +0530,
surprise.jpg,s,42,0,7,s,1,0.32485749991610646,None,7,0,42,1,130.3943247999996,,,,,,,,,,,,,,,,130.38967609987594,130.3943247999996,131.88752839993685,131.88752839993685,131.90394910005853,,132.22286790004,s,1,,0.32485749991610646,None,RI22,108,2025-04-01_21h14.49.397,416_EXPERIMENT_PSYCHOPY_AU2220019_AU2220225,2024.2.4,119.82218408713848,2025-04-01 21h18.57.349249 +0530,
fear_upper_blur.jpg,f,43,1,7,s,0,0.2670771998818964,None,7,1,43,2,132.23808969999664,,,,,,,,,,,,,,,,132.2326273000799,132.23808969999664,133.7216437999159,133.7216437999159,133.73804900003597,,134.0038924999535,s,0,,0.2670771998818964,None,RI22,108,2025-04-01_21h14.49.397,416_EXPERIMENT_PSYCHOPY_AU2220019_AU2220225,2024.2.4,119.82218408713848,2025-04-01 21h18.57.349249 +0530,
surprise_lower_blur.jpg,s,44,2,7,s,1,0.23857679986394942,None,7,2,44,5,134.0234922999516,,,,,,,,,,,,,,,,134.01788880000822,134.0234922999516,135.5217655999586,135.5217655999586,135.53862280002795,,135.77048379997723,s,1,,0.23857679986394942,None,RI22,108,2025-04-01_21h14.49.397,416_EXPERIMENT_PSYCHOPY_AU2220019_AU2220225,2024.2.4,119.82218408713848,2025-04-01 21h18.57.349249 +0530,
surprise_upper_blur.jpg,s,45,3,7,s,1,0.24380759987980127,None,7,3,45,4,135.78936529997736,,,,,,,,,,,,,,,,135.7835488000419,135.78936529997736,137.27177769993432,137.27177769993432,137.28827190003358,,137.5239464000333,s,1,,0.24380759987980127,None,RI22,108,2025-04-01_21h14.49.397,416_EXPERIMENT_PSYCHOPY_AU2220019_AU2220225,2024.2.4,119.82218408713848,2025-04-01 21h18.57.349249 +0530,
fear_lower_blur.jpg,f,46,4,7,None,0,,,7,4,46,3,137.54338190006092,,,,,,,,,,,,,,,,137.53792349994183,137.54338190006092,139.03737029992044,139.03737029992044,139.05397280002944,139.53856329992414,139.77202979987487,None,0,139.7898524000775,,,RI22,108,2025-04-01_21h14.49.397,416_EXPERIMENT_PSYCHOPY_AU2220019_AU2220225,2024.2.4,119.82218408713848,2025-04-01 21h18.57.349249 +0530,
fear.jpg,f,47,5,7,None,0,,,7,5,47,0,139.7898524000775,,,,,,,,,,,,,,,,139.78446300001815,139.7898524000775,141.28860149998218,141.28860149998218,141.3045530000236,141.78625750006177,142.02326909988187,None,0,142.04262230009772,,,RI22,108,2025-04-01_21h14.49.397,416_EXPERIMENT_PSYCHOPY_AU2220019_AU2220225,2024.2.4,119.82218408713848,2025-04-01 21h18.57.349249 +0530,
fear.jpg,f,48,0,8,s,0,0.3823063999880105,None,8,0,48,0,142.04262230009772,,,,,,,,,,,,,,,,142.037760599982,142.04262230009772,143.53832979989238,143.53832979989238,143.5551138999872,,143.94053029990755,s,0,,0.3823063999880105,None,RI22,108,2025-04-01_21h14.49.397,416_EXPERIMENT_PSYCHOPY_AU2220019_AU2220225,2024.2.4,119.82218408713848,2025-04-01 21h18.57.349249 +0530,
fear_upper_blur.jpg,f,49,1,8,None,0,,,8,1,49,2,143.96127390000038,,,,,,,,,,,,,,,,143.95572189986706,143.96127390000038,145.45487700006925,145.45487700006925,145.4718259999063,145.9696579000447,146.18992329994217,None,0,146.20907779992558,,,RI22,108,2025-04-01_21h14.49.397,416_EXPERIMENT_PSYCHOPY_AU2220019_AU2220225,2024.2.4,119.82218408713848,2025-04-01 21h18.57.349249 +0530,
surprise_upper_blur.jpg,s,50,2,8,f,0,0.7053559001069516,None,8,2,50,4,146.20907779992558,,,,,,,,,,,,,,,,146.2041360998992,146.20907779992558,147.7045938000083,147.7045938000083,147.71988560003228,148.20369759993628,148.42320879991166,f,0,,0.7053559001069516,None,RI22,108,2025-04-01_21h14.49.397,416_EXPERIMENT_PSYCHOPY_AU2220019_AU2220225,2024.2.4,119.82218408713848,2025-04-01 21h18.57.349249 +0530,
surprise_lower_blur.jpg,s,51,3,8,s,1,0.4654990998096764,None,8,3,51,5,148.439514500089,,,,,,,,,,,,,,,,148.43414409994148,148.439514500089,149.93816530006006,149.93816530006006,149.95537109998986,,150.4070439999923,s,1,,0.4654990998096764,None,RI22,108,2025-04-01_21h14.49.397,416_EXPERIMENT_PSYCHOPY_AU2220019_AU2220225,2024.2.4,119.82218408713848,2025-04-01 21h18.57.349249 +0530,
fear_lower_blur.jpg,f,52,4,8,f,1,0.6089253998361528,None,8,4,52,3,150.42835900001228,,,,,,,,,,,,,,,,150.42159290006384,150.42835900001228,151.92055119993165,151.92055119993165,151.93765809992328,152.42100209998898,152.5401443000883,f,1,,0.6089253998361528,None,RI22,108,2025-04-01_21h14.49.397,416_EXPERIMENT_PSYCHOPY_AU2220019_AU2220225,2024.2.4,119.82218408713848,2025-04-01 21h18.57.349249 +0530,
surprise.jpg,s,53,5,8,s,1,0.3416629999410361,None,8,5,53,1,152.56026589986868,,,,,,,,,,,,,,,,152.55526749999262,152.56026589986868,154.0547676999122,154.0547676999122,154.071580799995,,154.40728739998303,s,1,,0.3416629999410361,None,RI22,108,2025-04-01_21h14.49.397,416_EXPERIMENT_PSYCHOPY_AU2220019_AU2220225,2024.2.4,119.82218408713848,2025-04-01 21h18.57.349249 +0530,
fear.jpg,f,54,0,9,s,0,0.6822981999721378,None,9,0,54,0,154.42680169991218,,,,,,,,,,,,,,,,154.42098319996148,154.42680169991218,155.92188809998333,155.92188809998333,155.9378049999941,156.42191269993782,156.60767189995386,s,0,,0.6822981999721378,None,RI22,108,2025-04-01_21h14.49.397,416_EXPERIMENT_PSYCHOPY_AU2220019_AU2220225,2024.2.4,119.82218408713848,2025-04-01 21h18.57.349249 +0530,
fear_lower_blur.jpg,f,55,1,9,None,0,,,9,1,55,3,156.6277659998741,,,,,,,,,,,,,,,,156.6216798000969,156.6277659998741,158.12119430000894,158.12119430000894,158.1361845000647,158.6359748998657,158.85619079996832,None,0,158.87483430001885,,,RI22,108,2025-04-01_21h14.49.397,416_EXPERIMENT_PSYCHOPY_AU2220019_AU2220225,2024.2.4,119.82218408713848,2025-04-01 21h18.57.349249 +0530,
surprise_upper_blur.jpg,s,56,2,9,f,0,0.6585234000813216,None,9,2,56,4,158.87483430001885,,,,,,,,,,,,,,,,158.87029809993692,158.87483430001885,160.37142449989915,160.37142449989915,160.3887732999865,160.88803720008582,161.03981500002556,f,0,,0.6585234000813216,None,RI22,108,2025-04-01_21h14.49.397,416_EXPERIMENT_PSYCHOPY_AU2220019_AU2220225,2024.2.4,119.82218408713848,2025-04-01 21h18.57.349249 +0530,
surprise.jpg,s,57,3,9,f,0,0.5192076000384986,None,9,3,57,1,161.05862280004658,,,,,,,,,,,,,,,,161.0533970000688,161.05862280004658,162.55491279996932,162.55491279996932,162.5714302000124,163.0545882000588,163.08761309995316,f,0,,0.5192076000384986,None,RI22,108,2025-04-01_21h14.49.397,416_EXPERIMENT_PSYCHOPY_AU2220019_AU2220225,2024.2.4,119.82218408713848,2025-04-01 21h18.57.349249 +0530,
fear_upper_blur.jpg,f,58,4,9,None,0,,,9,4,58,2,163.10557899996638,,,,,,,,,,,,,,,,163.09968129987828,163.10557899996638,164.58830760000274,164.58830760000274,164.60457860003226,165.08847639989108,165.33716450002976,None,0,165.35464189993218,,,RI22,108,2025-04-01_21h14.49.397,416_EXPERIMENT_PSYCHOPY_AU2220019_AU2220225,2024.2.4,119.82218408713848,2025-04-01 21h18.57.349249 +0530,
surprise_lower_blur.jpg,s,59,5,9,s,1,0.6002034000121057,None,9,5,59,5,165.35464189993218,,,,,,,,,,,,,,,,165.34804839990102,165.35464189993218,166.83911069994792,166.83911069994792,166.85493889986537,167.3414771000389,167.4554182998836,s,1,,0.6002034000121057,None,RI22,108,2025-04-01_21h14.49.397,416_EXPERIMENT_PSYCHOPY_AU2220019_AU2220225,2024.2.4,119.82218408713848,2025-04-01 21h18.57.349249 +0530,
fear.jpg,f,60,0,10,f,1,0.2637186001520604,None,10,0,60,0,167.47253270004876,,,,,,,,,,,,,,,,167.46692529995926,167.47253270004876,168.95481180003844,168.95481180003844,168.9884287000168,,169.2236416998785,f,1,,0.2637186001520604,None,RI22,108,2025-04-01_21h14.49.397,416_EXPERIMENT_PSYCHOPY_AU2220019_AU2220225,2024.2.4,119.82218408713848,2025-04-01 21h18.57.349249 +0530,
fear_upper_blur.jpg,f,61,1,10,s,0,0.45528490003198385,None,10,1,61,2,169.24347530002706,,,,,,,,,,,,,,,,169.23798249987885,169.24347530002706,170.7400744999759,170.7400744999759,170.75712460000068,,171.2066071999725,s,0,,0.45528490003198385,None,RI22,108,2025-04-01_21h14.49.397,416_EXPERIMENT_PSYCHOPY_AU2220019_AU2220225,2024.2.4,119.82218408713848,2025-04-01 21h18.57.349249 +0530,
surprise_lower_blur.jpg,s,62,2,10,f,0,0.471230800030753,None,10,2,62,5,171.22224959987216,,,,,,,,,,,,,,,,171.2169520999305,171.22224959987216,172.70770969986916,172.70770969986916,172.72189390007406,,173.18932439992204,f,0,,0.471230800030753,None,RI22,108,2025-04-01_21h14.49.397,416_EXPERIMENT_PSYCHOPY_AU2220019_AU2220225,2024.2.4,119.82218408713848,2025-04-01 21h18.57.349249 +0530,
surprise.jpg,s,63,3,10,s,1,0.28444820013828576,None,10,3,63,1,173.20875549991615,,,,,,,,,,,,,,,,173.20299239992164,173.20875549991615,174.70290010003373,174.70290010003373,174.71960960002616,,175.00458170007914,s,1,,0.28444820013828576,None,RI22,108,2025-04-01_21h14.49.397,416_EXPERIMENT_PSYCHOPY_AU2220019_AU2220225,2024.2.4,119.82218408713848,2025-04-01 21h18.57.349249 +0530,
surprise_upper_blur.jpg,s,64,4,10,s,1,0.3576362000312656,None,10,4,64,4,175.02167339995503,,,,,,,,,,,,,,,,175.01528960000724,175.02167339995503,176.5042906999588,176.5042906999588,176.52189030009322,,176.87403549999,s,1,,0.3576362000312656,None,RI22,108,2025-04-01_21h14.49.397,416_EXPERIMENT_PSYCHOPY_AU2220019_AU2220225,2024.2.4,119.82218408713848,2025-04-01 21h18.57.349249 +0530,
fear_lower_blur.jpg,f,65,5,10,s,0,0.2606246001087129,None,10,5,65,3,176.89356140000746,,,,,,,,,,,,,,,,176.88801150000654,176.89356140000746,178.38863159995526,178.38863159995526,178.40507079986855,,178.65760480007157,s,0,,0.2606246001087129,None,RI22,108,2025-04-01_21h14.49.397,416_EXPERIMENT_PSYCHOPY_AU2220019_AU2220225,2024.2.4,119.82218408713848,2025-04-01 21h18.57.349249 +0530,
fear_lower_blur.jpg,f,66,0,11,f,1,0.3448787000961602,None,11,0,66,3,178.67804550006986,,,,,,,,,,,,,,,,178.67181400000118,178.67804550006986,180.17201450001448,180.17201450001448,180.18817360000685,,180.52111659990624,f,1,,0.3448787000961602,None,RI22,108,2025-04-01_21h14.49.397,416_EXPERIMENT_PSYCHOPY_AU2220019_AU2220225,2024.2.4,119.82218408713848,2025-04-01 21h18.57.349249 +0530,
surprise_upper_blur.jpg,s,67,1,11,s,1,0.4181995999533683,None,11,1,67,4,180.5408264999278,,,,,,,,,,,,,,,,180.53421709989198,180.5408264999278,182.03849599999376,182.03849599999376,182.05368499993347,,182.47386460006237,s,1,,0.4181995999533683,None,RI22,108,2025-04-01_21h14.49.397,416_EXPERIMENT_PSYCHOPY_AU2220019_AU2220225,2024.2.4,119.82218408713848,2025-04-01 21h18.57.349249 +0530,
fear_upper_blur.jpg,f,68,2,11,s,0,0.6794555999804288,None,11,2,68,2,182.4930082000792,,,,,,,,,,,,,,,,182.48802580009215,182.4930082000792,183.9886986000929,183.9886986000929,184.00484679988585,184.48868299997412,184.67372950003482,s,0,,0.6794555999804288,None,RI22,108,2025-04-01_21h14.49.397,416_EXPERIMENT_PSYCHOPY_AU2220019_AU2220225,2024.2.4,119.82218408713848,2025-04-01 21h18.57.349249 +0530,
surprise_lower_blur.jpg,s,69,3,11,f,0,0.36768090003170073,None,11,3,69,5,184.69360579992644,,,,,,,,,,,,,,,,184.6881991000846,184.69360579992644,186.18630739999935,186.18630739999935,186.2031201000791,,186.5584758000914,f,0,,0.36768090003170073,None,RI22,108,2025-04-01_21h14.49.397,416_EXPERIMENT_PSYCHOPY_AU2220019_AU2220225,2024.2.4,119.82218408713848,2025-04-01 21h18.57.349249 +0530,
fear.jpg,f,70,4,11,None,0,,,11,4,70,0,186.57797329989262,,,,,,,,,,,,,,,,186.57240239996463,186.57797329989262,188.07109900005162,188.07109900005162,188.08827010006644,188.57170319999568,188.82205570000224,None,0,,,,RI22,108,2025-04-01_21h14.49.397,416_EXPERIMENT_PSYCHOPY_AU2220019_AU2220225,2024.2.4,119.82218408713848,2025-04-01 21h18.57.349249 +0530,
surprise.jpg,s,71,5,11,s,1,0.5354064998682588,None,11,5,71,1,188.8432249999605,,,,,,,,,,,,,,,,188.83778239996172,188.8432249999605,190.31926400004886,190.31926400004886,190.35480859992094,190.82151869987138,190.85844209999777,s,1,,0.5354064998682588,None,RI22,108,2025-04-01_21h14.49.397,416_EXPERIMENT_PSYCHOPY_AU2220019_AU2220225,2024.2.4,119.82218408713848,2025-04-01 21h18.57.349249 +0530,
surprise.jpg,s,72,0,12,f,0,0.5064878000412136,None,12,0,72,1,190.8774663999211,,,,,,,,,,,,,,,,190.87198910000734,190.8774663999211,192.37205239990726,192.37205239990726,192.38804659992456,192.88677840004675,192.88904329994693,f,0,,0.5064878000412136,None,RI22,108,2025-04-01_21h14.49.397,416_EXPERIMENT_PSYCHOPY_AU2220019_AU2220225,2024.2.4,119.82218408713848,2025-04-01 21h18.57.349249 +0530,
fear_lower_blur.jpg,f,73,1,12,f,1,0.392176799941808,None,12,1,73,3,192.90907209995203,,,,,,,,,,,,,,,,192.9029628999997,192.90907209995203,194.38777450006455,194.38777450006455,194.42169640003704,,194.79088289989159,f,1,,0.392176799941808,None,RI22,108,2025-04-01_21h14.49.397,416_EXPERIMENT_PSYCHOPY_AU2220019_AU2220225,2024.2.4,119.82218408713848,2025-04-01 21h18.57.349249 +0530,
fear.jpg,f,74,2,12,s,0,0.35267490008845925,None,12,2,74,0,194.80986070004292,,,,,,,,,,,,,,,,194.80393739999272,194.80986070004292,196.30260129994713,196.30260129994713,196.31923829996958,,196.65873860009015,s,0,,0.35267490008845925,None,RI22,108,2025-04-01_21h14.49.397,416_EXPERIMENT_PSYCHOPY_AU2220019_AU2220225,2024.2.4,119.82218408713848,2025-04-01 21h18.57.349249 +0530,
fear_upper_blur.jpg,f,75,3,12,s,0,0.4557763000484556,None,12,3,75,2,196.67799989995547,,,,,,,,,,,,,,,,196.67220079991966,196.67799989995547,198.1719380998984,198.1719380998984,198.1887467999477,,198.6408730999101,s,0,,0.4557763000484556,None,RI22,108,2025-04-01_21h14.49.397,416_EXPERIMENT_PSYCHOPY_AU2220019_AU2220225,2024.2.4,119.82218408713848,2025-04-01 21h18.57.349249 +0530,
surprise_lower_blur.jpg,s,76,4,12,s,1,0.44928360008634627,None,12,4,76,5,198.66153699997813,,,,,,,,,,,,,,,,198.65524780005217,198.66153699997813,200.1551991000306,200.1551991000306,200.17177830007859,,200.60821039997973,s,1,,0.44928360008634627,None,RI22,108,2025-04-01_21h14.49.397,416_EXPERIMENT_PSYCHOPY_AU2220019_AU2220225,2024.2.4,119.82218408713848,2025-04-01 21h18.57.349249 +0530,
surprise_upper_blur.jpg,s,77,5,12,s,1,0.72235790011473,None,12,5,77,4,200.62813719990663,,,,,,,,,,,,,,,,200.6220976000186,200.62813719990663,202.1219891998917,202.1219891998917,202.1388347998727,202.6363725999836,202.85584899992682,s,1,,0.72235790011473,None,RI22,108,2025-04-01_21h14.49.397,416_EXPERIMENT_PSYCHOPY_AU2220019_AU2220225,2024.2.4,119.82218408713848,2025-04-01 21h18.57.349249 +0530,
fear.jpg,f,78,0,13,f,1,0.6043070999439806,None,13,0,78,0,202.87197929993272,,,,,,,,,,,,,,,,202.86696049990132,202.87197929993272,204.35489599988796,204.35489599988796,204.37254410004243,204.85584759991616,204.9709316000808,f,1,,0.6043070999439806,None,RI22,108,2025-04-01_21h14.49.397,416_EXPERIMENT_PSYCHOPY_AU2220019_AU2220225,2024.2.4,119.82218408713848,2025-04-01 21h18.57.349249 +0530,
surprise_upper_blur.jpg,s,79,1,13,s,1,0.3681912000756711,None,13,1,79,4,204.9883171999827,,,,,,,,,,,,,,,,204.98198889987543,204.9883171999827,206.47180699999444,206.47180699999444,206.48900699988008,,206.84347379999235,s,1,,0.3681912000756711,None,RI22,108,2025-04-01_21h14.49.397,416_EXPERIMENT_PSYCHOPY_AU2220019_AU2220225,2024.2.4,119.82218408713848,2025-04-01 21h18.57.349249 +0530,
fear_upper_blur.jpg,f,80,2,13,f,1,0.3622673999052495,None,13,2,80,2,206.86384609993547,,,,,,,,,,,,,,,,206.85774050001055,206.86384609993547,208.35540329990909,208.35540329990909,208.3725874000229,,208.72607959993184,f,1,,0.3622673999052495,None,RI22,108,2025-04-01_21h14.49.397,416_EXPERIMENT_PSYCHOPY_AU2220019_AU2220225,2024.2.4,119.82218408713848,2025-04-01 21h18.57.349249 +0530,
surprise_lower_blur.jpg,s,81,3,13,s,1,0.6702386001124978,None,13,3,81,5,208.7475566000212,,,,,,,,,,,,,,,,208.74079569987953,208.7475566000212,210.23937599989586,210.23937599989586,210.25594249996357,210.75354829989374,210.9241333999671,s,1,,0.6702386001124978,None,RI22,108,2025-04-01_21h14.49.397,416_EXPERIMENT_PSYCHOPY_AU2220019_AU2220225,2024.2.4,119.82218408713848,2025-04-01 21h18.57.349249 +0530,
surprise.jpg,s,82,4,13,s,1,0.5387162999249995,None,13,4,82,1,210.94499760004692,,,,,,,,,,,,,,,,210.93900789995678,210.94499760004692,212.43661129986867,212.43661129986867,212.454255099874,212.93699970003217,212.99132649996318,s,1,,0.5387162999249995,None,RI22,108,2025-04-01_21h14.49.397,416_EXPERIMENT_PSYCHOPY_AU2220019_AU2220225,2024.2.4,119.82218408713848,2025-04-01 21h18.57.349249 +0530,
fear_lower_blur.jpg,f,83,5,13,f,1,0.3670828000176698,None,13,5,83,3,213.01206810004078,,,,,,,,,,,,,,,,213.00591790000908,213.01206810004078,214.50614969991148,214.50614969991148,214.522496300051,,214.89089359994978,f,1,,0.3670828000176698,None,RI22,108,2025-04-01_21h14.49.397,416_EXPERIMENT_PSYCHOPY_AU2220019_AU2220225,2024.2.4,119.82218408713848,2025-04-01 21h18.57.349249 +0530,
fear.jpg,f,84,0,14,s,0,0.3783788001164794,None,14,0,84,0,214.90944469999522,,,,,,,,,,,,,,,,214.90448400005698,214.90944469999522,216.40529190003872,216.40529190003872,216.422136799898,,216.79205320007168,s,0,,0.3783788001164794,None,RI22,108,2025-04-01_21h14.49.397,416_EXPERIMENT_PSYCHOPY_AU2220019_AU2220225,2024.2.4,119.82218408713848,2025-04-01 21h18.57.349249 +0530,
surprise_upper_blur.jpg,s,85,1,14,s,1,0.6896256001200527,None,14,1,85,4,216.81193100009114,,,,,,,,,,,,,,,,216.80549279996194,216.81193100009114,218.30569260008633,218.30569260008633,218.3223158000037,218.80520040006377,219.00883439998142,s,1,,0.6896256001200527,None,RI22,108,2025-04-01_21h14.49.397,416_EXPERIMENT_PSYCHOPY_AU2220019_AU2220225,2024.2.4,119.82218408713848,2025-04-01 21h18.57.349249 +0530,
fear_upper_blur.jpg,f,86,2,14,f,1,0.3873284999281168,None,14,2,86,2,219.02864170004614,,,,,,,,,,,,,,,,219.0229970999062,219.02864170004614,220.52217580005527,220.52217580005527,220.5386290999595,,220.92374440003186,f,1,,0.3873284999281168,None,RI22,108,2025-04-01_21h14.49.397,416_EXPERIMENT_PSYCHOPY_AU2220019_AU2220225,2024.2.4,119.82218408713848,2025-04-01 21h18.57.349249 +0530,
fear_lower_blur.jpg,f,87,3,14,f,1,0.39746989984996617,None,14,3,87,3,220.94412759994157,,,,,,,,,,,,,,,,220.93803289998323,220.94412759994157,222.43861710000783,222.43861710000783,222.45583179988898,,222.84099599998444,f,1,,0.39746989984996617,None,RI22,108,2025-04-01_21h14.49.397,416_EXPERIMENT_PSYCHOPY_AU2220019_AU2220225,2024.2.4,119.82218408713848,2025-04-01 21h18.57.349249 +0530,
surprise.jpg,s,88,4,14,s,1,0.6363130998797715,None,14,4,88,1,222.86065410007723,,,,,,,,,,,,,,,,222.85514030000195,222.86065410007723,224.35524729988538,224.35524729988538,224.37229719990864,224.85537449992262,225.0079119000584,s,1,,0.6363130998797715,None,RI22,108,2025-04-01_21h14.49.397,416_EXPERIMENT_PSYCHOPY_AU2220019_AU2220225,2024.2.4,119.82218408713848,2025-04-01 21h18.57.349249 +0530,
surprise_lower_blur.jpg,s,89,5,14,s,1,0.6268260998185724,None,14,5,89,5,225.0290828999132,,,,,,,,,,,,,,,,225.0227568000555,225.0290828999132,226.52151579991914,226.52151579991914,226.53758289990947,227.03700080001727,227.15815409994684,s,1,,0.6268260998185724,None,RI22,108,2025-04-01_21h14.49.397,416_EXPERIMENT_PSYCHOPY_AU2220019_AU2220225,2024.2.4,119.82218408713848,2025-04-01 21h18.57.349249 +0530,
fear.jpg,f,90,0,15,s,0,0.2758790000807494,None,15,0,90,0,227.17935850005597,,,,,,,,,,,,,,,,227.1734513998963,227.17935850005597,228.67023020004854,228.67023020004854,228.68744840007275,,228.95633980003186,s,0,,0.2758790000807494,None,RI22,108,2025-04-01_21h14.49.397,416_EXPERIMENT_PSYCHOPY_AU2220019_AU2220225,2024.2.4,119.82218408713848,2025-04-01 21h18.57.349249 +0530,
surprise.jpg,s,91,1,15,f,0,0.5933119000401348,None,15,1,91,1,228.97310300008394,,,,,,,,,,,,,,,,228.96686739986762,228.97310300008394,230.4721731999889,230.4721731999889,230.4721731999889,230.9724224000238,231.07204889995046,f,0,,0.5933119000401348,None,RI22,108,2025-04-01_21h14.49.397,416_EXPERIMENT_PSYCHOPY_AU2220019_AU2220225,2024.2.4,119.82218408713848,2025-04-01 21h18.57.349249 +0530,
surprise_lower_blur.jpg,s,92,2,15,s,1,0.4732925998978317,None,15,2,92,5,231.09227910009213,,,,,,,,,,,,,,,,231.08651659986936,231.09227910009213,232.5722294000443,232.5722294000443,232.60538100008853,,233.0541195999831,s,1,,0.4732925998978317,None,RI22,108,2025-04-01_21h14.49.397,416_EXPERIMENT_PSYCHOPY_AU2220019_AU2220225,2024.2.4,119.82218408713848,2025-04-01 21h18.57.349249 +0530,
surprise_upper_blur.jpg,s,93,3,15,f,0,0.5109655999112874,None,15,3,93,4,233.07180129992776,,,,,,,,,,,,,,,,233.06387369986624,233.07180129992776,234.5546760999132,234.5546760999132,234.57096330006607,235.05519629991613,235.07237310009077,f,0,,0.5109655999112874,None,RI22,108,2025-04-01_21h14.49.397,416_EXPERIMENT_PSYCHOPY_AU2220019_AU2220225,2024.2.4,119.82218408713848,2025-04-01 21h18.57.349249 +0530,
fear_upper_blur.jpg,f,94,4,15,s,0,0.44236670015379786,None,15,4,94,2,235.0925326999277,,,,,,,,,,,,,,,,235.08649150002748,235.0925326999277,236.58834280003794,236.58834280003794,236.60432159993798,,237.0419010000769,s,0,,0.44236670015379786,None,RI22,108,2025-04-01_21h14.49.397,416_EXPERIMENT_PSYCHOPY_AU2220019_AU2220225,2024.2.4,119.82218408713848,2025-04-01 21h18.57.349249 +0530,
fear_lower_blur.jpg,f,95,5,15,s,0,0.5681649001780897,None,15,5,95,3,237.0618505999446,,,,,,,,,,,,,,,,237.05622439994477,237.0618505999446,238.55223249993287,238.55223249993287,238.57078579999506,239.05498980008997,239.1245740999002,s,0,,0.5681649001780897,None,RI22,108,2025-04-01_21h14.49.397,416_EXPERIMENT_PSYCHOPY_AU2220019_AU2220225,2024.2.4,119.82218408713848,2025-04-01 21h18.57.349249 +0530,
fear_upper_blur.jpg,f,96,0,16,s,0,0.45294480002485216,None,16,0,96,2,239.14333499991335,,,,,,,,,,,,,,,,239.13830429990776,239.14333499991335,240.6381431000773,240.6381431000773,240.65512029989623,,241.09840860008262,s,0,,0.45294480002485216,None,RI22,108,2025-04-01_21h14.49.397,416_EXPERIMENT_PSYCHOPY_AU2220019_AU2220225,2024.2.4,119.82218408713848,2025-04-01 21h18.57.349249 +0530,
fear.jpg,f,97,1,16,f,1,0.5052304000128061,None,16,1,97,0,241.12752059986815,,,,,,,,,,,,,,,,241.12142469990067,241.12752059986815,242.6039332000073,242.6039332000073,242.63699749996886,243.11950280005112,243.12092499993742,f,1,,0.5052304000128061,None,RI22,108,2025-04-01_21h14.49.397,416_EXPERIMENT_PSYCHOPY_AU2220019_AU2220225,2024.2.4,119.82218408713848,2025-04-01 21h18.57.349249 +0530,
fear_lower_blur.jpg,f,98,2,16,s,0,0.35830970015376806,None,16,2,98,3,243.1389196999371,,,,,,,,,,,,,,,,243.1329922999721,243.1389196999371,244.6213217000477,244.6213217000477,244.63802569988184,,244.98975729988888,s,0,,0.35830970015376806,None,RI22,108,2025-04-01_21h14.49.397,416_EXPERIMENT_PSYCHOPY_AU2220019_AU2220225,2024.2.4,119.82218408713848,2025-04-01 21h18.57.349249 +0530,
surprise_upper_blur.jpg,s,99,3,16,f,0,0.3962854999117553,None,16,3,99,4,245.0087751999963,,,,,,,,,,,,,,,,245.00380129995756,245.0087751999963,246.505088099977,246.505088099977,246.52164849988185,,246.90693970001303,f,0,,0.3962854999117553,None,RI22,108,2025-04-01_21h14.49.397,416_EXPERIMENT_PSYCHOPY_AU2220019_AU2220225,2024.2.4,119.82218408713848,2025-04-01 21h18.57.349249 +0530,
surprise.jpg,s,100,4,16,f,0,0.4644131001550704,None,16,4,100,1,246.92703599995002,,,,,,,,,,,,,,,,246.92161970003508,246.92703599995002,248.42161499988288,248.42161499988288,248.43842789996415,,248.89049350004643,f,0,,0.4644131001550704,None,RI22,108,2025-04-01_21h14.49.397,416_EXPERIMENT_PSYCHOPY_AU2220019_AU2220225,2024.2.4,119.82218408713848,2025-04-01 21h18.57.349249 +0530,
surprise_lower_blur.jpg,s,101,5,16,s,1,0.4166759999934584,None,16,5,101,5,248.9098578998819,,,,,,,,,,,,,,,,248.9046745998785,248.9098578998819,250.4047411000356,250.4047411000356,250.42168310005218,,250.82509159995243,s,1,,0.4166759999934584,None,RI22,108,2025-04-01_21h14.49.397,416_EXPERIMENT_PSYCHOPY_AU2220019_AU2220225,2024.2.4,119.82218408713848,2025-04-01 21h18.57.349249 +0530,
surprise.jpg,s,102,0,17,s,1,0.2583509001415223,None,17,0,102,1,250.84550000005402,,,,,,,,,,,,,,,,250.83982979995199,250.84550000005402,252.3387923000846,252.3387923000846,252.3551258998923,,252.60681469994597,s,1,,0.2583509001415223,None,RI22,108,2025-04-01_21h14.49.397,416_EXPERIMENT_PSYCHOPY_AU2220019_AU2220225,2024.2.4,119.82218408713848,2025-04-01 21h18.57.349249 +0530,
fear_upper_blur.jpg,f,103,1,17,s,0,0.3403662000782788,None,17,1,103,2,252.62591079995036,,,,,,,,,,,,,,,,252.62080259993672,252.62591079995036,254.12142940005288,254.12142940005288,254.13852560007945,,254.4731230000034,s,0,,0.3403662000782788,None,RI22,108,2025-04-01_21h14.49.397,416_EXPERIMENT_PSYCHOPY_AU2220019_AU2220225,2024.2.4,119.82218408713848,2025-04-01 21h18.57.349249 +0530,
fear_lower_blur.jpg,f,104,2,17,s,0,0.3227792999241501,None,17,2,104,3,254.49273380008526,,,,,,,,,,,,,,,,254.48718070005998,254.49273380008526,255.98866369994357,255.98866369994357,256.00460779992864,,256.32143629994243,s,0,,0.3227792999241501,None,RI22,108,2025-04-01_21h14.49.397,416_EXPERIMENT_PSYCHOPY_AU2220019_AU2220225,2024.2.4,119.82218408713848,2025-04-01 21h18.57.349249 +0530,
surprise_lower_blur.jpg,s,105,3,17,None,0,,,17,3,105,5,256.33741939999163,,,,,,,,,,,,,,,,256.3320724000223,256.33741939999163,257.821513999952,257.821513999952,257.8384453000035,258.33602360007353,258.55622859997675,None,0,258.5789898999501,,,RI22,108,2025-04-01_21h14.49.397,416_EXPERIMENT_PSYCHOPY_AU2220019_AU2220225,2024.2.4,119.82218408713848,2025-04-01 21h18.57.349249 +0530,
surprise_upper_blur.jpg,s,106,4,17,f,0,0.40996860014274716,None,17,4,106,4,258.5789898999501,,,,,,,,,,,,,,,,258.57410009996966,258.5789898999501,260.071447199909,260.071447199909,260.0865764999762,,260.4904291999992,f,0,,0.40996860014274716,None,RI22,108,2025-04-01_21h14.49.397,416_EXPERIMENT_PSYCHOPY_AU2220019_AU2220225,2024.2.4,119.82218408713848,2025-04-01 21h18.57.349249 +0530,
fear.jpg,f,107,5,17,s,0,0.5493451999500394,None,17,5,107,0,260.51060659997165,,,,,,,,,,,,,,,,260.5053123999387,260.51060659997165,262.0048771998845,262.0048771998845,262.02166349999607,262.5051351999864,262.55708419997245,s,0,,0.5493451999500394,None,RI22,108,2025-04-01_21h14.49.397,416_EXPERIMENT_PSYCHOPY_AU2220019_AU2220225,2024.2.4,119.82218408713848,2025-04-01 21h18.57.349249 +0530,
fear.jpg,f,108,0,18,s,0,0.6348928997758776,None,18,0,108,0,262.57713190000504,,,,,,,,,,,,,,,,262.5721315999981,262.57713190000504,264.0698911999352,264.0698911999352,264.08577049989253,264.5719850999303,264.70821499987505,s,0,,0.6348928997758776,None,RI22,108,2025-04-01_21h14.49.397,416_EXPERIMENT_PSYCHOPY_AU2220019_AU2220225,2024.2.4,119.82218408713848,2025-04-01 21h18.57.349249 +0530,
surprise.jpg,s,109,1,18,None,0,,,18,1,109,1,264.72888959990814,,,,,,,,,,,,,,,,264.72339219995774,264.72888959990814,266.22172260005027,266.22172260005027,266.2383771999739,266.7218301000539,266.95597480004653,None,0,266.9734119998757,,,RI22,108,2025-04-01_21h14.49.397,416_EXPERIMENT_PSYCHOPY_AU2220019_AU2220225,2024.2.4,119.82218408713848,2025-04-01 21h18.57.349249 +0530,
surprise_upper_blur.jpg,s,110,2,18,s,1,0.4505477000493556,None,18,2,110,4,266.9734119998757,,,,,,,,,,,,,,,,266.9683362999931,266.9734119998757,268.47142639989033,268.47142639989033,268.48736550007015,,268.9258789999876,s,1,,0.4505477000493556,None,RI22,108,2025-04-01_21h14.49.397,416_EXPERIMENT_PSYCHOPY_AU2220019_AU2220225,2024.2.4,119.82218408713848,2025-04-01 21h18.57.349249 +0530,
fear_lower_blur.jpg,f,111,3,18,s,0,0.5765457998495549,None,18,3,111,3,268.9441988999024,,,,,,,,,,,,,,,,268.93898730003275,268.9441988999024,270.4359349999577,270.4359349999577,270.4526549000293,270.93841579998843,271.02314110007137,s,0,,0.5765457998495549,None,RI22,108,2025-04-01_21h14.49.397,416_EXPERIMENT_PSYCHOPY_AU2220019_AU2220225,2024.2.4,119.82218408713848,2025-04-01 21h18.57.349249 +0530,
fear_upper_blur.jpg,f,112,4,18,f,1,0.4134768999647349,None,18,4,112,2,271.0429454999976,,,,,,,,,,,,,,,,271.0374165000394,271.0429454999976,272.5380241998937,272.5380241998937,272.55453109997325,,272.9570267999079,f,1,,0.4134768999647349,None,RI22,108,2025-04-01_21h14.49.397,416_EXPERIMENT_PSYCHOPY_AU2220019_AU2220225,2024.2.4,119.82218408713848,2025-04-01 21h18.57.349249 +0530,
surprise_lower_blur.jpg,s,113,5,18,None,0,,,18,5,113,5,272.97739439993165,,,,,,,,,,,,,,,,272.9715652000159,272.97739439993165,274.4698892000597,274.4698892000597,274.4864002999384,274.9715909000952,275.20612809993327,None,0,275.22482319991104,,,RI22,108,2025-04-01_21h14.49.397,416_EXPERIMENT_PSYCHOPY_AU2220019_AU2220225,2024.2.4,119.82218408713848,2025-04-01 21h18.57.349249 +0530,
surprise_lower_blur.jpg,s,114,0,19,s,1,0.4129160998854786,None,19,0,114,5,275.22482319991104,,,,,,,,,,,,,,,,275.2203204999678,275.22482319991104,276.7218738999218,276.7218738999218,276.7384230000898,,277.1409583000932,s,1,,0.4129160998854786,None,RI22,108,2025-04-01_21h14.49.397,416_EXPERIMENT_PSYCHOPY_AU2220019_AU2220225,2024.2.4,119.82218408713848,2025-04-01 21h18.57.349249 +0530,
surprise.jpg,s,115,1,19,f,0,0.507374000037089,None,19,1,115,1,277.1614542999305,,,,,,,,,,,,,,,,277.1554894000292,277.1614542999305,278.6546300998889,278.6546300998889,278.67173160007223,279.1712130000815,279.17331649991684,f,0,,0.507374000037089,None,RI22,108,2025-04-01_21h14.49.397,416_EXPERIMENT_PSYCHOPY_AU2220019_AU2220225,2024.2.4,119.82218408713848,2025-04-01 21h18.57.349249 +0530,
surprise_upper_blur.jpg,s,116,2,19,f,0,0.5006288001313806,None,19,2,116,4,279.18949229991995,,,,,,,,,,,,,,,,279.18404900003225,279.18949229991995,280.68818420008756,280.68818420008756,280.7047421000898,281.2101453000214,281.193802600028,f,0,,0.5006288001313806,None,RI22,108,2025-04-01_21h14.49.397,416_EXPERIMENT_PSYCHOPY_AU2220019_AU2220225,2024.2.4,119.82218408713848,2025-04-01 21h18.57.349249 +0530,
fear_upper_blur.jpg,f,117,3,19,f,1,0.6771849000360817,None,19,3,117,2,281.2101453000214,,,,,,,,,,,,,,,,281.20512950001284,281.2101453000214,282.70498410006985,282.70498410006985,282.7215642000083,283.2051236999687,283.3907917998731,f,1,,0.6771849000360817,None,RI22,108,2025-04-01_21h14.49.397,416_EXPERIMENT_PSYCHOPY_AU2220019_AU2220225,2024.2.4,119.82218408713848,2025-04-01 21h18.57.349249 +0530,
fear.jpg,f,118,4,19,f,1,0.5411945998203009,None,19,4,118,0,283.4124358999543,,,,,,,,,,,,,,,,283.40685450006276,283.4124358999543,284.90452079987153,284.90452079987153,284.92157369991764,285.4049118999392,285.45688829990104,f,1,,0.5411945998203009,None,RI22,108,2025-04-01_21h14.49.397,416_EXPERIMENT_PSYCHOPY_AU2220019_AU2220225,2024.2.4,119.82218408713848,2025-04-01 21h18.57.349249 +0530,
fear_lower_blur.jpg,f,119,5,19,f,1,0.35773789999075234,None,19,5,119,3,285.4761487999931,,,,,,,,,,,,,,,,285.47068949998356,285.4761487999931,286.97185610001907,286.97185610001907,286.9889106999617,,287.34061000007205,f,1,,0.35773789999075234,None,RI22,108,2025-04-01_21h14.49.397,416_EXPERIMENT_PSYCHOPY_AU2220019_AU2220225,2024.2.4,119.82218408713848,2025-04-01 21h18.57.349249 +0530,
