stimulus_image,correct_response,loop.thisRepN,loop.thisTrialN,loop.thisN,loop.thisIndex,thisRow.t,notes,guide.started,instructions.started,ins_resp.started,guide.stopped,ins_resp.keys,ins_resp.rt,ins_resp.duration,guide_2.started,ins_resp_2.started,instructions_2.started,guide_2.stopped,ins_resp_2.keys,ins_resp_2.rt,ins_resp_2.duration,trial.started,fixation.started,image.started,key_resp.started,fixation.stopped,trial.stopped,key_resp.keys,key_resp.corr,key_resp.rt,key_resp.duration,image.stopped,key_resp.stopped,participant,session,date,expName,psychopyVersion,frameRate,expStart,
,,,,,,,,0.002773400046862662,0.023079199949279428,0.023079199949279428,11.303065399988554,space,11.181089899968356,None,,,,,,,,,,,,,,,,,,,,S22,001,2025-03-31_16h40.42.404,416_EXPERIMENT_PSYCHOPY_AU2220019_AU2220225,2024.1.5,None,2025-03-31 16h44.40.009621 +0530,
,,,,,,,,,,,,,,,11.303110599983484,11.307690300047398,11.307690300047398,13.880045700003393,space,2.5687218999955803,None,,,,,,,,,,,,,S22,001,2025-03-31_16h40.42.404,416_EXPERIMENT_PSYCHOPY_AU2220019_AU2220225,2024.1.5,None,2025-03-31 16h44.40.009621 +0530,
surprise_lower_blur.jpg,s,0,0,0,5,14.006874199956656,,,,,,,,,,,,,,,,13.982715699938126,14.006874199956656,15.50296700000763,15.50296700000763,15.509548699948937,16.044193199952133,s,1,0.5328776999376714,None,,,S22,001,2025-03-31_16h40.42.404,416_EXPERIMENT_PSYCHOPY_AU2220019_AU2220225,2024.1.5,None,2025-03-31 16h44.40.009621 +0530,
fear_lower_blur.jpg,f,0,1,1,3,16.112044099951163,,,,,,,,,,,,,,,,16.047199800028466,16.112044099951163,17.556608699960634,17.556608699960634,17.624029899947345,18.008801099960692,s,0,0.435775600024499,None,,,S22,001,2025-03-31_16h40.42.404,416_EXPERIMENT_PSYCHOPY_AU2220019_AU2220225,2024.1.5,None,2025-03-31 16h44.40.009621 +0530,
fear_upper_blur.jpg,f,0,2,2,2,18.040638400008902,,,,,,,,,,,,,,,,18.010218500043266,18.040638400008902,19.52107849996537,19.52107849996537,19.55539879994467,19.989125499967486,f,1,0.4639813000103459,None,,,S22,001,2025-03-31_16h40.42.404,416_EXPERIMENT_PSYCHOPY_AU2220019_AU2220225,2024.1.5,None,2025-03-31 16h44.40.009621 +0530,
surprise_upper_blur.jpg,s,0,3,3,4,20.068754500010982,,,,,,,,,,,,,,,,19.99050419998821,20.068754500010982,21.50112479995005,21.50112479995005,21.58442319999449,22.05409420002252,s,1,0.5373090000357479,None,,,S22,001,2025-03-31_16h40.42.404,416_EXPERIMENT_PSYCHOPY_AU2220019_AU2220225,2024.1.5,None,2025-03-31 16h44.40.009621 +0530,
surprise.jpg,s,0,4,4,1,22.110297000035644,,,,,,,,,,,,,,,,22.05594019999262,22.110297000035644,23.566380299977027,23.566380299977027,23.616356699960306,23.985058199963532,f,0,0.4170170999132097,None,,,S22,001,2025-03-31_16h40.42.404,416_EXPERIMENT_PSYCHOPY_AU2220019_AU2220225,2024.1.5,None,2025-03-31 16h44.40.009621 +0530,
fear.jpg,f,0,5,5,0,24.022285099956207,,,,,,,,,,,,,,,,23.98675949999597,24.022285099956207,25.497254300047643,25.497254300047643,25.531312600011006,25.933467800030485,f,1,0.4327864999650046,None,,,S22,001,2025-03-31_16h40.42.404,416_EXPERIMENT_PSYCHOPY_AU2220019_AU2220225,2024.1.5,None,2025-03-31 16h44.40.009621 +0530,
fear_upper_blur.jpg,f,1,0,6,2,25.958893900038674,,,,,,,,,,,,,,,,25.93539120000787,25.958893900038674,27.445210800040513,27.445210800040513,27.462061499943957,27.932327499962412,f,1,0.4775851999875158,None,,,S22,001,2025-03-31_16h40.42.404,416_EXPERIMENT_PSYCHOPY_AU2220019_AU2220225,2024.1.5,None,2025-03-31 16h44.40.009621 +0530,
fear.jpg,f,1,1,7,0,27.953168499981984,,,,,,,,,,,,,,,,27.93431669997517,27.953168499981984,29.443977499962784,29.443977499962784,29.45964370004367,30.028105700039305,f,1,0.5814723999937996,None,,,S22,001,2025-03-31_16h40.42.404,416_EXPERIMENT_PSYCHOPY_AU2220019_AU2220225,2024.1.5,None,2025-03-31 16h44.40.009621 +0530,
surprise_upper_blur.jpg,s,1,2,8,4,30.048688699956983,,,,,,,,,,,,,,,,30.029690800001845,30.048688699956983,31.54198009998072,31.54198009998072,31.558895500027575,31.996565000037663,s,1,0.4432467999868095,None,,,S22,001,2025-03-31_16h40.42.404,416_EXPERIMENT_PSYCHOPY_AU2220019_AU2220225,2024.1.5,None,2025-03-31 16h44.40.009621 +0530,
surprise.jpg,s,1,3,9,1,32.02757899998687,,,,,,,,,,,,,,,,31.99915319995489,32.02757899998687,33.505858700023964,33.505858700023964,33.54016029997729,33.82771139999386,s,1,0.3113670999882743,None,,,S22,001,2025-03-31_16h40.42.404,416_EXPERIMENT_PSYCHOPY_AU2220019_AU2220225,2024.1.5,None,2025-03-31 16h44.40.009621 +0530,
surprise_lower_blur.jpg,s,1,4,10,5,33.85966199997347,,,,,,,,,,,,,,,,33.82986950001214,33.85966199997347,35.338865499943495,35.338865499943495,35.37258239998482,35.859063099953346,s,1,0.5160304000601172,None,,,S22,001,2025-03-31_16h40.42.404,416_EXPERIMENT_PSYCHOPY_AU2220019_AU2220225,2024.1.5,None,2025-03-31 16h44.40.009621 +0530,
fear_lower_blur.jpg,f,1,5,11,3,35.88095250003971,,,,,,,,,,,,,,,,35.8612517999718,35.88095250003971,37.371093999943696,37.371093999943696,37.38733920000959,37.823499899939634,f,1,0.4357526999665424,None,,,S22,001,2025-03-31_16h40.42.404,416_EXPERIMENT_PSYCHOPY_AU2220019_AU2220225,2024.1.5,None,2025-03-31 16h44.40.009621 +0530,
fear_lower_blur.jpg,f,2,0,12,3,37.848499699961394,,,,,,,,,,,,,,,,37.82562909997068,37.848499699961394,39.33626699994784,39.33626699994784,39.35259549994953,39.70490030001383,f,1,0.36356680002063513,None,,,S22,001,2025-03-31_16h40.42.404,416_EXPERIMENT_PSYCHOPY_AU2220019_AU2220225,2024.1.5,None,2025-03-31 16h44.40.009621 +0530,
fear.jpg,f,2,1,13,0,39.7267775000073,,,,,,,,,,,,,,,,39.70647390000522,39.7267775000073,41.21648519998416,41.21648519998416,41.2338652999606,41.57001459994353,s,0,0.3458327999105677,None,,,S22,001,2025-03-31_16h40.42.404,416_EXPERIMENT_PSYCHOPY_AU2220019_AU2220225,2024.1.5,None,2025-03-31 16h44.40.009621 +0530,
fear_upper_blur.jpg,f,2,2,14,2,41.590227699954994,,,,,,,,,,,,,,,,41.57223219994921,41.590227699954994,43.081074799993075,43.081074799993075,43.09843919996638,43.480798800010234,f,1,0.3878823999548331,None,,,S22,001,2025-03-31_16h40.42.404,416_EXPERIMENT_PSYCHOPY_AU2220019_AU2220225,2024.1.5,None,2025-03-31 16h44.40.009621 +0530,
surprise_upper_blur.jpg,s,2,3,15,4,43.49605199997313,,,,,,,,,,,,,,,,43.481861599953845,43.49605199997313,44.99635220004711,44.99635220004711,44.99635220004711,45.34861320001073,f,0,0.3490835999837145,None,,,S22,001,2025-03-31_16h40.42.404,416_EXPERIMENT_PSYCHOPY_AU2220019_AU2220225,2024.1.5,None,2025-03-31 16h44.40.009621 +0530,
surprise_lower_blur.jpg,s,2,4,16,5,45.37495059997309,,,,,,,,,,,,,,,,45.3502866999479,45.37495059997309,46.860747699975036,46.860747699975036,46.878465999965556,47.280785999959335,s,1,0.40219679998699576,None,,,S22,001,2025-03-31_16h40.42.404,416_EXPERIMENT_PSYCHOPY_AU2220019_AU2220225,2024.1.5,None,2025-03-31 16h44.40.009621 +0530,
surprise.jpg,s,2,5,17,1,47.3026181999594,,,,,,,,,,,,,,,,47.282927999971434,47.3026181999594,48.791820500046015,48.791820500046015,48.808431299985386,49.3124158999417,s,1,0.5180714000016451,None,,,S22,001,2025-03-31_16h40.42.404,416_EXPERIMENT_PSYCHOPY_AU2220019_AU2220225,2024.1.5,None,2025-03-31 16h44.40.009621 +0530,
fear.jpg,f,3,0,18,0,49.33738679997623,,,,,,,,,,,,,,,,49.31458240002394,49.33738679997623,50.82407920004334,50.82407920004334,50.84078379999846,51.27547999995295,f,1,0.43464410002343357,None,,,S22,001,2025-03-31_16h40.42.404,416_EXPERIMENT_PSYCHOPY_AU2220019_AU2220225,2024.1.5,None,2025-03-31 16h44.40.009621 +0530,
surprise_lower_blur.jpg,s,3,1,19,5,51.293868600041606,,,,,,,,,,,,,,,,51.277162199956365,51.293868600041606,52.78831810003612,52.78831810003612,52.80550969997421,53.307944700005464,s,1,0.5049713000189513,None,,,S22,001,2025-03-31_16h40.42.404,416_EXPERIMENT_PSYCHOPY_AU2220019_AU2220225,2024.1.5,None,2025-03-31 16h44.40.009621 +0530,
surprise.jpg,s,3,2,20,1,53.328181399963796,,,,,,,,,,,,,,,,53.30953279999085,53.328181399963796,54.81897429993842,54.81897429993842,54.83741020003799,55.30639489996247,s,1,0.4818777000764385,None,,,S22,001,2025-03-31_16h40.42.404,416_EXPERIMENT_PSYCHOPY_AU2220019_AU2220225,2024.1.5,None,2025-03-31 16h44.40.009621 +0530,
fear_lower_blur.jpg,f,3,3,21,3,55.326454999973066,,,,,,,,,,,,,,,,55.30817680002656,55.326454999973066,56.818315500044264,56.818315500044264,56.83465860004071,57.33670380001422,f,1,0.5163066000677645,None,,,S22,001,2025-03-31_16h40.42.404,416_EXPERIMENT_PSYCHOPY_AU2220019_AU2220225,2024.1.5,None,2025-03-31 16h44.40.009621 +0530,
fear_upper_blur.jpg,f,3,4,22,2,57.35686069994699,,,,,,,,,,,,,,,,57.33834050002042,57.35686069994699,58.84930420003366,58.84930420003366,58.86697750003077,59.4014553000452,f,1,0.5368655000347644,None,,,S22,001,2025-03-31_16h40.42.404,416_EXPERIMENT_PSYCHOPY_AU2220019_AU2220225,2024.1.5,None,2025-03-31 16h44.40.009621 +0530,
surprise_upper_blur.jpg,s,3,5,23,4,59.430124899954535,,,,,,,,,,,,,,,,59.403125599958,59.430124899954535,60.91266439994797,60.91266439994797,60.9296064999653,61.44958939997014,s,1,0.5283388000680134,None,,,S22,001,2025-03-31_16h40.42.404,416_EXPERIMENT_PSYCHOPY_AU2220019_AU2220225,2024.1.5,None,2025-03-31 16h44.40.009621 +0530,
surprise_lower_blur.jpg,s,4,0,24,5,61.47754079999868,,,,,,,,,,,,,,,,61.45129130000714,61.47754079999868,62.96239829994738,62.96239829994738,62.979139099945314,63.43204099999275,s,1,0.4535876999143511,None,,,S22,001,2025-03-31_16h40.42.404,416_EXPERIMENT_PSYCHOPY_AU2220019_AU2220225,2024.1.5,None,2025-03-31 16h44.40.009621 +0530,
fear.jpg,f,4,1,25,0,63.453066700021736,,,,,,,,,,,,,,,,63.43366199999582,63.453066700021736,64.94320149999112,64.94320149999112,64.96032029995695,65.54579719994217,f,1,0.5981983999954537,None,,,S22,001,2025-03-31_16h40.42.404,416_EXPERIMENT_PSYCHOPY_AU2220019_AU2220225,2024.1.5,None,2025-03-31 16h44.40.009621 +0530,
surprise.jpg,s,4,2,26,1,65.57482089998666,,,,,,,,,,,,,,,,65.54769609996583,65.57482089998666,67.05827519996092,67.05827519996092,67.0755216999678,67.50862269999925,s,1,0.4488906000042334,None,,,S22,001,2025-03-31_16h40.42.404,416_EXPERIMENT_PSYCHOPY_AU2220019_AU2220225,2024.1.5,None,2025-03-31 16h44.40.009621 +0530,
fear_lower_blur.jpg,f,4,3,27,3,67.52372639998794,,,,,,,,,,,,,,,,67.5099924999522,67.52372639998794,69.0234282000456,69.0234282000456,69.0234282000456,69.473902800004,f,1,0.43518250004854053,None,,,S22,001,2025-03-31_16h40.42.404,416_EXPERIMENT_PSYCHOPY_AU2220019_AU2220225,2024.1.5,None,2025-03-31 16h44.40.009621 +0530,
fear_upper_blur.jpg,f,4,4,28,2,69.49120819999371,,,,,,,,,,,,,,,,69.47537769994233,69.49120819999371,70.98663189995568,70.98663189995568,71.00291509996168,71.50691949995235,f,1,0.5110724999103695,None,,,S22,001,2025-03-31_16h40.42.404,416_EXPERIMENT_PSYCHOPY_AU2220019_AU2220225,2024.1.5,None,2025-03-31 16h44.40.009621 +0530,
surprise_upper_blur.jpg,s,4,5,29,4,71.5276576000033,,,,,,,,,,,,,,,,71.50873000000138,71.5276576000033,73.01867160003167,73.01867160003167,73.03540059993975,73.48714470001869,s,1,0.4535168999573216,None,,,S22,001,2025-03-31_16h40.42.404,416_EXPERIMENT_PSYCHOPY_AU2220019_AU2220225,2024.1.5,None,2025-03-31 16h44.40.009621 +0530,
surprise.jpg,s,5,0,30,1,73.50615469994955,,,,,,,,,,,,,,,,73.48861240001861,73.50615469994955,74.99988260003738,74.99988260003738,75.01712870004121,75.46985090000089,s,1,0.46687570004723966,None,,,S22,001,2025-03-31_16h40.42.404,416_EXPERIMENT_PSYCHOPY_AU2220019_AU2220225,2024.1.5,None,2025-03-31 16h44.40.009621 +0530,
surprise_lower_blur.jpg,s,5,1,31,5,75.49212900002021,,,,,,,,,,,,,,,,75.47181949997321,75.49212900002021,76.98241920000874,76.98241920000874,76.99880019994453,77.5502381999977,f,0,0.5605396999744698,None,,,S22,001,2025-03-31_16h40.42.404,416_EXPERIMENT_PSYCHOPY_AU2220019_AU2220225,2024.1.5,None,2025-03-31 16h44.40.009621 +0530,
fear_lower_blur.jpg,f,5,2,32,3,77.57123300002422,,,,,,,,,,,,,,,,77.55256680003367,77.57123300002422,79.06257359997835,79.06257359997835,79.0803088999819,79.46596760000102,f,1,0.3859309999970719,None,,,S22,001,2025-03-31_16h40.42.404,416_EXPERIMENT_PSYCHOPY_AU2220019_AU2220225,2024.1.5,None,2025-03-31 16h44.40.009621 +0530,
fear.jpg,f,5,3,33,0,79.48568979999982,,,,,,,,,,,,,,,,79.46750959998462,79.48568979999982,80.97650340001564,80.97650340001564,80.99290980002843,81.39654710004106,f,1,0.4131917000049725,None,,,S22,001,2025-03-31_16h40.42.404,416_EXPERIMENT_PSYCHOPY_AU2220019_AU2220225,2024.1.5,None,2025-03-31 16h44.40.009621 +0530,
surprise_upper_blur.jpg,s,5,4,34,4,81.42466779996175,,,,,,,,,,,,,,,,81.39849239995237,81.42466779996175,82.90967730002012,82.90967730002012,82.92658009997103,83.47790629998781,s,1,0.5525404000654817,None,,,S22,001,2025-03-31_16h40.42.404,416_EXPERIMENT_PSYCHOPY_AU2220019_AU2220225,2024.1.5,None,2025-03-31 16h44.40.009621 +0530,
fear_upper_blur.jpg,f,5,5,35,2,83.50547279999591,,,,,,,,,,,,,,,,83.48015529999975,83.50547279999591,84.98990849999245,84.98990849999245,85.00581470003817,85.55780339997727,f,1,0.5534950000001118,None,,,S22,001,2025-03-31_16h40.42.404,416_EXPERIMENT_PSYCHOPY_AU2220019_AU2220225,2024.1.5,None,2025-03-31 16h44.40.009621 +0530,
surprise_lower_blur.jpg,s,6,0,36,5,85.5723171000136,,,,,,,,,,,,,,,,85.55886939994525,85.5723171000136,87.07234459999017,87.07234459999017,87.07234459999017,87.57247500005178,s,1,0.48773420008365065,None,,,S22,001,2025-03-31_16h40.42.404,416_EXPERIMENT_PSYCHOPY_AU2220019_AU2220225,2024.1.5,None,2025-03-31 16h44.40.009621 +0530,
fear.jpg,f,6,1,37,0,87.59055640001316,,,,,,,,,,,,,,,,87.57371909997892,87.59055640001316,89.0863617999712,89.0863617999712,89.1019259999739,89.82062110002153,None,0,,,89.84272489999421,89.84272489999421,S22,001,2025-03-31_16h40.42.404,416_EXPERIMENT_PSYCHOPY_AU2220019_AU2220225,2024.1.5,None,2025-03-31 16h44.40.009621 +0530,
surprise.jpg,s,6,2,38,1,89.84272489999421,,,,,,,,,,,,,,,,89.82275549997576,89.84272489999421,91.33392829995137,91.33392829995137,91.35147929994855,91.75470489996951,s,1,0.41352740000002086,None,,,S22,001,2025-03-31_16h40.42.404,416_EXPERIMENT_PSYCHOPY_AU2220019_AU2220225,2024.1.5,None,2025-03-31 16h44.40.009621 +0530,
surprise_upper_blur.jpg,s,6,3,39,4,91.77560629998334,,,,,,,,,,,,,,,,91.75674590002745,91.77560629998334,93.26512130000629,93.26512130000629,93.28207209997345,93.83443489996716,s,1,0.5569831000175327,None,,,S22,001,2025-03-31_16h40.42.404,416_EXPERIMENT_PSYCHOPY_AU2220019_AU2220225,2024.1.5,None,2025-03-31 16h44.40.009621 +0530,
fear_lower_blur.jpg,f,6,4,40,3,93.85338939994108,,,,,,,,,,,,,,,,93.83587239996996,93.85338939994108,95.34671009995509,95.34671009995509,95.36380379996262,95.9156916999491,f,1,0.5526986001059413,None,,,S22,001,2025-03-31_16h40.42.404,416_EXPERIMENT_PSYCHOPY_AU2220019_AU2220225,2024.1.5,None,2025-03-31 16h44.40.009621 +0530,
fear_upper_blur.jpg,f,6,5,41,2,95.93346480000764,,,,,,,,,,,,,,,,95.91733419999946,95.93346480000764,97.42819070001133,97.42819070001133,97.44560219999403,98.16297049995046,None,0,,,98.18356849998236,98.18356849998236,S22,001,2025-03-31_16h40.42.404,416_EXPERIMENT_PSYCHOPY_AU2220019_AU2220225,2024.1.5,None,2025-03-31 16h44.40.009621 +0530,
fear_upper_blur.jpg,f,7,0,42,2,98.18356849998236,,,,,,,,,,,,,,,,98.16494619997684,98.18356849998236,99.67642090003937,99.67642090003937,99.69281409995165,100.245051600039,f,1,0.5561448999214917,None,,,S22,001,2025-03-31_16h40.42.404,416_EXPERIMENT_PSYCHOPY_AU2220019_AU2220225,2024.1.5,None,2025-03-31 16h44.40.009621 +0530,
surprise_upper_blur.jpg,s,7,1,43,4,100.26707349997014,,,,,,,,,,,,,,,,100.2473063999787,100.26707349997014,101.75739389995579,101.75739389995579,101.77448300004471,102.29362699994817,s,1,0.5334404000313953,None,,,S22,001,2025-03-31_16h40.42.404,416_EXPERIMENT_PSYCHOPY_AU2220019_AU2220225,2024.1.5,None,2025-03-31 16h44.40.009621 +0530,
surprise_lower_blur.jpg,s,7,2,44,5,102.31495100003667,,,,,,,,,,,,,,,,102.29556150001008,102.31495100003667,103.80483229993843,103.80483229993843,103.82194860000163,104.40796929993667,s,1,0.5923208999447525,None,,,S22,001,2025-03-31_16h40.42.404,416_EXPERIMENT_PSYCHOPY_AU2220019_AU2220225,2024.1.5,None,2025-03-31 16h44.40.009621 +0530,
surprise.jpg,s,7,3,45,1,104.4287142000394,,,,,,,,,,,,,,,,104.40952620003372,104.4287142000394,105.91958520002663,105.91958520002663,105.93710820004344,106.52350340003613,s,1,0.5953539999900386,None,,,S22,001,2025-03-31_16h40.42.404,416_EXPERIMENT_PSYCHOPY_AU2220019_AU2220225,2024.1.5,None,2025-03-31 16h44.40.009621 +0530,
fear.jpg,f,7,4,46,0,106.54497159994207,,,,,,,,,,,,,,,,106.52595739997923,106.54497159994207,108.03549639997073,108.03549639997073,108.05185920000076,108.76964870002121,None,0,,,108.79044619994238,108.79044619994238,S22,001,2025-03-31_16h40.42.404,416_EXPERIMENT_PSYCHOPY_AU2220019_AU2220225,2024.1.5,None,2025-03-31 16h44.40.009621 +0530,
fear_lower_blur.jpg,f,7,5,47,3,108.79044619994238,,,,,,,,,,,,,,,,108.7718400999438,108.79044619994238,110.28194629994687,110.28194629994687,110.29923699994106,111.01656899997033,None,0,,,111.03788810002152,111.03788810002152,S22,001,2025-03-31_16h40.42.404,416_EXPERIMENT_PSYCHOPY_AU2220019_AU2220225,2024.1.5,None,2025-03-31 16h44.40.009621 +0530,
surprise_upper_blur.jpg,s,8,0,48,4,111.03788810002152,,,,,,,,,,,,,,,,111.01873190002516,111.03788810002152,112.53076300001703,112.53076300001703,112.54788600001484,113.21533050003927,s,1,0.6737698999932036,None,,,S22,001,2025-03-31_16h40.42.404,416_EXPERIMENT_PSYCHOPY_AU2220019_AU2220225,2024.1.5,None,2025-03-31 16h44.40.009621 +0530,
surprise_lower_blur.jpg,s,8,1,49,5,113.2346376000205,,,,,,,,,,,,,,,,113.21712980000302,113.2346376000205,114.72828929999378,114.72828929999378,114.74477280001156,115.34777869994286,s,1,0.6088189999572933,None,,,S22,001,2025-03-31_16h40.42.404,416_EXPERIMENT_PSYCHOPY_AU2220019_AU2220225,2024.1.5,None,2025-03-31 16h44.40.009621 +0530,
fear.jpg,f,8,2,50,0,115.36919510003645,,,,,,,,,,,,,,,,115.34947420004755,115.36919510003645,116.85745939996559,116.85745939996559,116.87508290004916,117.59321249998175,None,0,,,117.62482190004084,117.62482190004084,S22,001,2025-03-31_16h40.42.404,416_EXPERIMENT_PSYCHOPY_AU2220019_AU2220225,2024.1.5,None,2025-03-31 16h44.40.009621 +0530,
fear_upper_blur.jpg,f,8,3,51,2,117.62482190004084,,,,,,,,,,,,,,,,117.5946029999759,117.62482190004084,119.10757540003397,119.10757540003397,119.12418529996648,119.85630899993703,None,0,,,,,S22,001,2025-03-31_16h40.42.404,416_EXPERIMENT_PSYCHOPY_AU2220019_AU2220225,2024.1.5,None,2025-03-31 16h44.40.009621 +0530,
fear_lower_blur.jpg,f,8,4,52,3,119.88253219996113,,,,,,,,,,,,,,,,119.85867280000821,119.88253219996113,121.35546320001595,121.35546320001595,121.38785079994705,122.00695539999288,f,1,0.6403836000245064,None,,,S22,001,2025-03-31_16h40.42.404,416_EXPERIMENT_PSYCHOPY_AU2220019_AU2220225,2024.1.5,None,2025-03-31 16h44.40.009621 +0530,
surprise.jpg,s,8,5,53,1,122.03013389999978,,,,,,,,,,,,,,,,122.00891710002907,122.03013389999978,123.52020359993912,123.52020359993912,123.53631889994722,124.26960749994032,None,0,,,,,S22,001,2025-03-31_16h40.42.404,416_EXPERIMENT_PSYCHOPY_AU2220019_AU2220225,2024.1.5,None,2025-03-31 16h44.40.009621 +0530,
fear_upper_blur.jpg,f,9,0,54,2,124.29397570004221,,,,,,,,,,,,,,,,124.27100319997407,124.29397570004221,125.76798360003158,125.76798360003158,125.80109550000634,126.01844929996878,f,1,0.23382570000831038,None,,,S22,001,2025-03-31_16h40.42.404,416_EXPERIMENT_PSYCHOPY_AU2220019_AU2220225,2024.1.5,None,2025-03-31 16h44.40.009621 +0530,
surprise.jpg,s,9,1,55,1,126.04422779998276,,,,,,,,,,,,,,,,126.01962160004769,126.04422779998276,127.53270670003258,127.53270670003258,127.54877009999473,128.16724780004006,f,0,0.6254513000603765,None,,,S22,001,2025-03-31_16h40.42.404,416_EXPERIMENT_PSYCHOPY_AU2220019_AU2220225,2024.1.5,None,2025-03-31 16h44.40.009621 +0530,
fear.jpg,f,9,2,56,0,128.18686370004434,,,,,,,,,,,,,,,,128.16959079995286,128.18686370004434,129.68049739999697,129.68049739999697,129.69722540001385,130.20074050000403,f,1,0.5139057000633329,None,,,S22,001,2025-03-31_16h40.42.404,416_EXPERIMENT_PSYCHOPY_AU2220019_AU2220225,2024.1.5,None,2025-03-31 16h44.40.009621 +0530,
surprise_lower_blur.jpg,s,9,3,57,5,130.22284760000184,,,,,,,,,,,,,,,,130.2029320000438,130.22284760000184,131.71061219996773,131.71061219996773,131.72840529994573,132.2972463000333,s,1,0.5840419000014663,None,,,S22,001,2025-03-31_16h40.42.404,416_EXPERIMENT_PSYCHOPY_AU2220019_AU2220225,2024.1.5,None,2025-03-31 16h44.40.009621 +0530,
surprise_upper_blur.jpg,s,9,4,58,4,132.31926420005038,,,,,,,,,,,,,,,,132.29925199993886,132.31926420005038,133.80988389998674,133.80988389998674,133.82652829994913,134.5441255000187,None,0,,,134.57091809995472,134.57091809995472,S22,001,2025-03-31_16h40.42.404,416_EXPERIMENT_PSYCHOPY_AU2220019_AU2220225,2024.1.5,None,2025-03-31 16h44.40.009621 +0530,
fear_lower_blur.jpg,f,9,5,59,3,134.57091809995472,,,,,,,,,,,,,,,,134.5456053999951,134.57091809995472,136.05805390002206,136.05805390002206,136.0745752999792,136.8077211000491,None,0,,,,,S22,001,2025-03-31_16h40.42.404,416_EXPERIMENT_PSYCHOPY_AU2220019_AU2220225,2024.1.5,None,2025-03-31 16h44.40.009621 +0530,
surprise_lower_blur.jpg,s,10,0,60,5,136.83099389995914,,,,,,,,,,,,,,,,136.81002560001798,136.83099389995914,138.30543980002403,138.30543980002403,138.33858460001647,138.7744407999562,s,1,0.4636947000399232,None,,,S22,001,2025-03-31_16h40.42.404,416_EXPERIMENT_PSYCHOPY_AU2220019_AU2220225,2024.1.5,None,2025-03-31 16h44.40.009621 +0530,
surprise.jpg,s,10,1,61,1,138.79667870001867,,,,,,,,,,,,,,,,138.77676749997772,138.79667870001867,140.28626009996515,140.28626009996515,140.30245379998814,141.0205817000242,None,0,,,141.04264050000347,141.04264050000347,S22,001,2025-03-31_16h40.42.404,416_EXPERIMENT_PSYCHOPY_AU2220019_AU2220225,2024.1.5,None,2025-03-31 16h44.40.009621 +0530,
surprise_upper_blur.jpg,s,10,2,62,4,141.04264050000347,,,,,,,,,,,,,,,,141.02283509995323,141.04264050000347,142.53379549994133,142.53379549994133,142.5513369999826,142.9213107000105,f,0,0.3820394000504166,None,,,S22,001,2025-03-31_16h40.42.404,416_EXPERIMENT_PSYCHOPY_AU2220019_AU2220225,2024.1.5,None,2025-03-31 16h44.40.009621 +0530,
fear_lower_blur.jpg,f,10,3,63,3,142.94137539993972,,,,,,,,,,,,,,,,142.92334670003038,142.94137539993972,144.43289950001054,144.43289950001054,144.44936460000463,144.96727839997038,f,1,0.5190579999471083,None,,,S22,001,2025-03-31_16h40.42.404,416_EXPERIMENT_PSYCHOPY_AU2220019_AU2220225,2024.1.5,None,2025-03-31 16h44.40.009621 +0530,
fear.jpg,f,10,4,64,0,144.98728320002556,,,,,,,,,,,,,,,,144.9688389999792,144.98728320002556,146.48090530000627,146.48090530000627,146.49949099996593,147.21530979999807,None,0,,,147.23804169998039,147.23804169998039,S22,001,2025-03-31_16h40.42.404,416_EXPERIMENT_PSYCHOPY_AU2220019_AU2220225,2024.1.5,None,2025-03-31 16h44.40.009621 +0530,
fear_upper_blur.jpg,f,10,5,65,2,147.23804169998039,,,,,,,,,,,,,,,,147.2173212999478,147.23804169998039,148.72731240000576,148.72731240000576,148.74389579996932,149.1643149999436,f,1,0.4306970000034198,None,,,S22,001,2025-03-31_16h40.42.404,416_EXPERIMENT_PSYCHOPY_AU2220019_AU2220225,2024.1.5,None,2025-03-31 16h44.40.009621 +0530,
surprise_upper_blur.jpg,s,11,0,66,4,149.18425539997406,,,,,,,,,,,,,,,,149.166182499961,149.18425539997406,150.67597520002164,150.67597520002164,150.6928080000216,151.21258389996365,s,1,0.5227610000874847,None,,,S22,001,2025-03-31_16h40.42.404,416_EXPERIMENT_PSYCHOPY_AU2220019_AU2220225,2024.1.5,None,2025-03-31 16h44.40.009621 +0530,
fear_lower_blur.jpg,f,11,1,67,3,151.2457359000109,,,,,,,,,,,,,,,,151.21520999993663,151.2457359000109,152.72368329996243,152.72368329996243,152.7574614000041,153.45876720000524,None,0,,,153.4851663999725,153.4851663999725,S22,001,2025-03-31_16h40.42.404,416_EXPERIMENT_PSYCHOPY_AU2220019_AU2220225,2024.1.5,None,2025-03-31 16h44.40.009621 +0530,
fear_upper_blur.jpg,f,11,2,68,2,153.4851663999725,,,,,,,,,,,,,,,,153.46078730002046,153.4851663999725,154.9713691000361,154.9713691000361,154.988751100027,155.4906745000044,s,0,0.5072593000950292,None,,,S22,001,2025-03-31_16h40.42.404,416_EXPERIMENT_PSYCHOPY_AU2220019_AU2220225,2024.1.5,None,2025-03-31 16h44.40.009621 +0530,
surprise.jpg,s,11,3,69,1,155.5113986999495,,,,,,,,,,,,,,,,155.49312390002888,155.5113986999495,157.0029544000281,157.0029544000281,157.0196218000492,157.68804339994676,s,1,0.6807021000422537,None,,,S22,001,2025-03-31_16h40.42.404,416_EXPERIMENT_PSYCHOPY_AU2220019_AU2220225,2024.1.5,None,2025-03-31 16h44.40.009621 +0530,
fear.jpg,f,11,4,70,0,157.71821800002363,,,,,,,,,,,,,,,,157.68974619999062,157.71821800002363,159.20069990004413,159.20069990004413,159.21778109995648,159.93465619999915,None,0,,,159.9629426000174,159.9629426000174,S22,001,2025-03-31_16h40.42.404,416_EXPERIMENT_PSYCHOPY_AU2220019_AU2220225,2024.1.5,None,2025-03-31 16h44.40.009621 +0530,
surprise_lower_blur.jpg,s,11,5,71,5,159.9629426000174,,,,,,,,,,,,,,,,159.93656449997798,159.9629426000174,161.44862050004303,161.44862050004303,161.46523400000297,162.000966600026,s,1,0.5371418000431731,None,,,S22,001,2025-03-31_16h40.42.404,416_EXPERIMENT_PSYCHOPY_AU2220019_AU2220225,2024.1.5,None,2025-03-31 16h44.40.009621 +0530,
fear_upper_blur.jpg,f,12,0,72,2,162.0240151999751,,,,,,,,,,,,,,,,162.00300789996982,162.0240151999751,163.51323659997433,163.51323659997433,163.5292226000456,163.8490614000475,f,1,0.3225736999884248,None,,,S22,001,2025-03-31_16h40.42.404,416_EXPERIMENT_PSYCHOPY_AU2220019_AU2220225,2024.1.5,None,2025-03-31 16h44.40.009621 +0530,
fear.jpg,f,12,1,73,0,163.86931249999907,,,,,,,,,,,,,,,,163.85135440004524,163.86931249999907,165.36228819994722,165.36228819994722,165.37875739997253,165.71388059994206,f,1,0.3445617000106722,None,,,S22,001,2025-03-31_16h40.42.404,416_EXPERIMENT_PSYCHOPY_AU2220019_AU2220225,2024.1.5,None,2025-03-31 16h44.40.009621 +0530,
fear_lower_blur.jpg,f,12,2,74,3,165.73476999998093,,,,,,,,,,,,,,,,165.7160408999771,165.73476999998093,167.2261466999771,167.2261466999771,167.24294130003545,167.67667780001648,f,1,0.4435243000043556,None,,,S22,001,2025-03-31_16h40.42.404,416_EXPERIMENT_PSYCHOPY_AU2220019_AU2220225,2024.1.5,None,2025-03-31 16h44.40.009621 +0530,
surprise_upper_blur.jpg,s,12,3,75,4,167.69102379994,,,,,,,,,,,,,,,,167.6777489000233,167.69102379994,169.19201230001636,169.19201230001636,169.19201230001636,169.74366369994823,s,1,0.5441974999848753,None,,,S22,001,2025-03-31_16h40.42.404,416_EXPERIMENT_PSYCHOPY_AU2220019_AU2220225,2024.1.5,None,2025-03-31 16h44.40.009621 +0530,
surprise.jpg,s,12,4,76,1,169.7665031000506,,,,,,,,,,,,,,,,169.74564440001268,169.7665031000506,171.2556475000456,171.2556475000456,171.27294499997515,171.65839440003037,s,1,0.39927080005872995,None,,,S22,001,2025-03-31_16h40.42.404,416_EXPERIMENT_PSYCHOPY_AU2220019_AU2220225,2024.1.5,None,2025-03-31 16h44.40.009621 +0530,
surprise_lower_blur.jpg,s,12,5,77,5,171.67769819998648,,,,,,,,,,,,,,,,171.6600847999798,171.67769819998648,173.1707030000398,173.1707030000398,173.1875789000187,173.7724802000448,s,1,0.5910032000392675,None,,,S22,001,2025-03-31_16h40.42.404,416_EXPERIMENT_PSYCHOPY_AU2220019_AU2220225,2024.1.5,None,2025-03-31 16h44.40.009621 +0530,
surprise_lower_blur.jpg,s,13,0,78,5,173.79169640003238,,,,,,,,,,,,,,,,173.77422599995043,173.79169640003238,175.28549469995778,175.28549469995778,175.30230870004743,175.6869004999753,s,1,0.38694860006216913,None,,,S22,001,2025-03-31_16h40.42.404,416_EXPERIMENT_PSYCHOPY_AU2220019_AU2220225,2024.1.5,None,2025-03-31 16h44.40.009621 +0530,
fear_lower_blur.jpg,f,13,1,79,3,175.7055278000189,,,,,,,,,,,,,,,,175.6888764000032,175.7055278000189,177.20049379998818,177.20049379998818,177.2173701999709,177.5027931999648,s,0,0.2893633999628946,None,,,S22,001,2025-03-31_16h40.42.404,416_EXPERIMENT_PSYCHOPY_AU2220019_AU2220225,2024.1.5,None,2025-03-31 16h44.40.009621 +0530,
surprise.jpg,s,13,2,80,1,177.52309399994556,,,,,,,,,,,,,,,,177.50429790001363,177.52309399994556,179.0151515000034,179.0151515000034,179.0314655000111,179.33444410003722,f,0,0.3101405999623239,None,,,S22,001,2025-03-31_16h40.42.404,416_EXPERIMENT_PSYCHOPY_AU2220019_AU2220225,2024.1.5,None,2025-03-31 16h44.40.009621 +0530,
fear_upper_blur.jpg,f,13,3,81,2,179.3563065000344,,,,,,,,,,,,,,,,179.33640130003914,179.3563065000344,180.84654339996632,180.84654339996632,180.8632959999377,181.23148509999737,f,1,0.3692894000560045,None,,,S22,001,2025-03-31_16h40.42.404,416_EXPERIMENT_PSYCHOPY_AU2220019_AU2220225,2024.1.5,None,2025-03-31 16h44.40.009621 +0530,
surprise_upper_blur.jpg,s,13,4,82,4,181.24944100005087,,,,,,,,,,,,,,,,181.23278550000396,181.24944100005087,182.74502070003655,182.74502070003655,182.76131890004035,183.36334140005056,s,1,0.610903299995698,None,,,S22,001,2025-03-31_16h40.42.404,416_EXPERIMENT_PSYCHOPY_AU2220019_AU2220225,2024.1.5,None,2025-03-31 16h44.40.009621 +0530,
fear.jpg,f,13,5,83,0,183.3840755999554,,,,,,,,,,,,,,,,183.36529949994292,183.3840755999554,184.87570360000245,184.87570360000245,184.8924180000322,185.47898060001899,f,1,0.5963233999209478,None,,,S22,001,2025-03-31_16h40.42.404,416_EXPERIMENT_PSYCHOPY_AU2220019_AU2220225,2024.1.5,None,2025-03-31 16h44.40.009621 +0530,
surprise_upper_blur.jpg,s,14,0,84,4,185.50022649997845,,,,,,,,,,,,,,,,185.48115739994682,185.50022649997845,186.99103070003912,186.99103070003912,187.00805860001128,187.4259621000383,s,1,0.4195336999837309,None,,,S22,001,2025-03-31_16h40.42.404,416_EXPERIMENT_PSYCHOPY_AU2220019_AU2220225,2024.1.5,None,2025-03-31 16h44.40.009621 +0530,
fear_lower_blur.jpg,f,14,1,85,3,187.44515159993898,,,,,,,,,,,,,,,,187.42777559999377,187.44515159993898,188.9385332999518,188.9385332999518,188.95605889998842,189.32369909994304,s,0,0.3730956999352202,None,,,S22,001,2025-03-31_16h40.42.404,416_EXPERIMENT_PSYCHOPY_AU2220019_AU2220225,2024.1.5,None,2025-03-31 16h44.40.009621 +0530,
fear.jpg,f,14,2,86,0,189.3432723999722,,,,,,,,,,,,,,,,189.32529980002437,189.3432723999722,190.83684300002642,190.83684300002642,190.85335320001468,191.33928710001055,f,1,0.48894230008590966,None,,,S22,001,2025-03-31_16h40.42.404,416_EXPERIMENT_PSYCHOPY_AU2220019_AU2220225,2024.1.5,None,2025-03-31 16h44.40.009621 +0530,
fear_upper_blur.jpg,f,14,3,87,2,191.36036379996222,,,,,,,,,,,,,,,,191.34103889996186,191.36036379996222,192.85243410000112,192.85243410000112,192.86859309999272,193.1378710999852,f,1,0.2783971999306232,None,,,S22,001,2025-03-31_16h40.42.404,416_EXPERIMENT_PSYCHOPY_AU2220019_AU2220225,2024.1.5,None,2025-03-31 16h44.40.009621 +0530,
surprise_lower_blur.jpg,s,14,4,88,5,193.15692730003502,,,,,,,,,,,,,,,,193.13942729996052,193.15692730003502,194.6496591999894,194.6496591999894,194.66700210003182,195.00431859993841,f,0,0.3510473999194801,None,,,S22,001,2025-03-31_16h40.42.404,416_EXPERIMENT_PSYCHOPY_AU2220019_AU2220225,2024.1.5,None,2025-03-31 16h44.40.009621 +0530,
surprise.jpg,s,14,5,89,1,195.02338100003544,,,,,,,,,,,,,,,,195.0060049999738,195.02338100003544,196.5144209000282,196.5144209000282,196.5313915000297,197.05110369995236,s,1,0.5284968999912962,None,,,S22,001,2025-03-31_16h40.42.404,416_EXPERIMENT_PSYCHOPY_AU2220019_AU2220225,2024.1.5,None,2025-03-31 16h44.40.009621 +0530,
fear_lower_blur.jpg,f,15,0,90,3,197.0713389000157,,,,,,,,,,,,,,,,197.0531516999472,197.0713389000157,198.56280940002762,198.56280940002762,198.57786389999092,198.94757319998462,s,0,0.3720427999505773,None,,,S22,001,2025-03-31_16h40.42.404,416_EXPERIMENT_PSYCHOPY_AU2220019_AU2220225,2024.1.5,None,2025-03-31 16h44.40.009621 +0530,
fear_upper_blur.jpg,f,15,1,91,2,198.96629230002873,,,,,,,,,,,,,,,,198.94933139998466,198.96629230002873,200.46018009993713,200.46018009993713,200.4776426999597,200.72959080000874,f,1,0.2602680999552831,None,,,S22,001,2025-03-31_16h40.42.404,416_EXPERIMENT_PSYCHOPY_AU2220019_AU2220225,2024.1.5,None,2025-03-31 16h44.40.009621 +0530,
fear.jpg,f,15,2,92,0,200.75061470002402,,,,,,,,,,,,,,,,200.73189799999818,200.75061470002402,202.24206209997647,202.24206209997647,202.25951590004843,202.64513439999428,f,1,0.39059580001048744,None,,,S22,001,2025-03-31_16h40.42.404,416_EXPERIMENT_PSYCHOPY_AU2220019_AU2220225,2024.1.5,None,2025-03-31 16h44.40.009621 +0530,
surprise_upper_blur.jpg,s,15,3,93,4,202.66362709994428,,,,,,,,,,,,,,,,202.64673619996756,202.66362709994428,204.15649780002423,204.15649780002423,204.17407770000864,204.59257780003827,s,1,0.42071989993564785,None,,,S22,001,2025-03-31_16h40.42.404,416_EXPERIMENT_PSYCHOPY_AU2220019_AU2220225,2024.1.5,None,2025-03-31 16h44.40.009621 +0530,
surprise_lower_blur.jpg,s,15,4,94,5,204.61306490004063,,,,,,,,,,,,,,,,204.59422610001639,204.61306490004063,206.10528489993885,206.10528489993885,206.1220094000455,206.59097709995694,s,1,0.47285140003077686,None,,,S22,001,2025-03-31_16h40.42.404,416_EXPERIMENT_PSYCHOPY_AU2220019_AU2220225,2024.1.5,None,2025-03-31 16h44.40.009621 +0530,
surprise.jpg,s,15,5,95,1,206.6135264999466,,,,,,,,,,,,,,,,206.5932723999722,206.6135264999466,208.10347600001842,208.10347600001842,208.11957959993742,208.72036080004182,s,1,0.6130938999122009,None,,,S22,001,2025-03-31_16h40.42.404,416_EXPERIMENT_PSYCHOPY_AU2220019_AU2220225,2024.1.5,None,2025-03-31 16h44.40.009621 +0530,
surprise.jpg,s,16,0,96,1,208.73868219996803,,,,,,,,,,,,,,,,208.72181859996635,208.73868219996803,210.23402850003913,210.23402850003913,210.2510098000057,210.60419999994338,s,1,0.3619051000569016,None,,,S22,001,2025-03-31_16h40.42.404,416_EXPERIMENT_PSYCHOPY_AU2220019_AU2220225,2024.1.5,None,2025-03-31 16h44.40.009621 +0530,
fear_upper_blur.jpg,f,16,1,97,2,210.62503899994772,,,,,,,,,,,,,,,,210.60606669995468,210.62503899994772,212.11603859998286,212.11603859998286,212.13233379996382,212.58484429994132,f,1,0.4526097000343725,None,,,S22,001,2025-03-31_16h40.42.404,416_EXPERIMENT_PSYCHOPY_AU2220019_AU2220225,2024.1.5,None,2025-03-31 16h44.40.009621 +0530,
fear_lower_blur.jpg,f,16,2,98,3,212.60406060004607,,,,,,,,,,,,,,,,212.58755779999774,212.60406060004607,214.0974552000407,214.0974552000407,214.11339970002882,214.63280330004636,f,1,0.5278082999866456,None,,,S22,001,2025-03-31_16h40.42.404,416_EXPERIMENT_PSYCHOPY_AU2220019_AU2220225,2024.1.5,None,2025-03-31 16h44.40.009621 +0530,
fear.jpg,f,16,3,99,0,214.65842879994307,,,,,,,,,,,,,,,,214.63497380004264,214.65842879994307,216.14538799994625,216.14538799994625,216.1618983000517,216.63081959995907,f,1,0.4766515000956133,None,,,S22,001,2025-03-31_16h40.42.404,416_EXPERIMENT_PSYCHOPY_AU2220019_AU2220225,2024.1.5,None,2025-03-31 16h44.40.009621 +0530,
surprise_upper_blur.jpg,s,16,4,100,4,216.64994549995754,,,,,,,,,,,,,,,,216.63282990001608,216.64994549995754,218.1435794000281,218.1435794000281,218.15972590004094,218.6785760000348,s,1,0.5213197999401018,None,,,S22,001,2025-03-31_16h40.42.404,416_EXPERIMENT_PSYCHOPY_AU2220019_AU2220225,2024.1.5,None,2025-03-31 16h44.40.009621 +0530,
surprise_lower_blur.jpg,s,16,5,101,5,218.69898500002455,,,,,,,,,,,,,,,,218.6804059999995,218.69898500002455,220.19119889999274,220.19119889999274,220.20819879998453,220.67707380000502,s,1,0.47542549995705485,None,,,S22,001,2025-03-31_16h40.42.404,416_EXPERIMENT_PSYCHOPY_AU2220019_AU2220225,2024.1.5,None,2025-03-31 16h44.40.009621 +0530,
fear_lower_blur.jpg,f,17,0,102,3,220.69921829993837,,,,,,,,,,,,,,,,220.67913469998166,220.69921829993837,222.19006219995208,222.19006219995208,222.20628779998515,222.52582260000054,s,0,0.3262806999264285,None,,,S22,001,2025-03-31_16h40.42.404,416_EXPERIMENT_PSYCHOPY_AU2220019_AU2220225,2024.1.5,None,2025-03-31 16h44.40.009621 +0530,
surprise_upper_blur.jpg,s,17,1,103,4,222.55221170000732,,,,,,,,,,,,,,,,222.52844150003511,222.55221170000732,224.03768589999527,224.03768589999527,224.0539450000506,224.60715739999432,s,1,0.5626083000097424,None,,,S22,001,2025-03-31_16h40.42.404,416_EXPERIMENT_PSYCHOPY_AU2220019_AU2220225,2024.1.5,None,2025-03-31 16h44.40.009621 +0530,
fear_upper_blur.jpg,f,17,2,104,2,224.62796169996727,,,,,,,,,,,,,,,,224.60907070001122,224.62796169996727,226.11903329996858,226.11903329996858,226.13580729998648,226.6884237000486,s,0,0.5641972000012174,None,,,S22,001,2025-03-31_16h40.42.404,416_EXPERIMENT_PSYCHOPY_AU2220019_AU2220225,2024.1.5,None,2025-03-31 16h44.40.009621 +0530,
surprise.jpg,s,17,3,105,1,226.70898250001483,,,,,,,,,,,,,,,,226.6905910000205,226.70898250001483,228.19986369996332,228.19986369996332,228.21700960001908,228.56988670001738,f,0,0.36198110005352646,None,,,S22,001,2025-03-31_16h40.42.404,416_EXPERIMENT_PSYCHOPY_AU2220019_AU2220225,2024.1.5,None,2025-03-31 16h44.40.009621 +0530,
surprise_lower_blur.jpg,s,17,4,106,5,228.58896740002092,,,,,,,,,,,,,,,,228.57172679994255,228.58896740002092,230.0813028999837,230.0813028999837,230.0985498999944,230.38365590001922,f,0,0.2893072000006214,None,,,S22,001,2025-03-31_16h40.42.404,416_EXPERIMENT_PSYCHOPY_AU2220019_AU2220225,2024.1.5,None,2025-03-31 16h44.40.009621 +0530,
fear.jpg,f,17,5,107,0,230.40336809994187,,,,,,,,,,,,,,,,230.38527960004285,230.40336809994187,231.89633729995694,231.89633729995694,231.9134105000412,232.26602280000225,f,1,0.3529449999332428,None,,,S22,001,2025-03-31_16h40.42.404,416_EXPERIMENT_PSYCHOPY_AU2220019_AU2220225,2024.1.5,None,2025-03-31 16h44.40.009621 +0530,
surprise.jpg,s,18,0,108,1,232.28715400001965,,,,,,,,,,,,,,,,232.26795719994698,232.28715400001965,233.77814249997027,233.77814249997027,233.79451559996232,234.1466831000289,s,1,0.35562460008077323,None,,,S22,001,2025-03-31_16h40.42.404,416_EXPERIMENT_PSYCHOPY_AU2220019_AU2220225,2024.1.5,None,2025-03-31 16h44.40.009621 +0530,
fear_upper_blur.jpg,f,18,1,109,2,234.16640069999266,,,,,,,,,,,,,,,,234.14844849996734,234.16640069999266,235.65917320002336,235.65917320002336,235.6758585999487,235.97935279994272,f,1,0.3167758999625221,None,,,S22,001,2025-03-31_16h40.42.404,416_EXPERIMENT_PSYCHOPY_AU2220019_AU2220225,2024.1.5,None,2025-03-31 16h44.40.009621 +0530,
fear_lower_blur.jpg,f,18,2,110,3,235.99962849996518,,,,,,,,,,,,,,,,235.9813473999966,235.99962849996518,237.49121809995268,237.49121809995268,237.50775079999585,237.7760901999427,s,0,0.27623610000591725,None,,,S22,001,2025-03-31_16h40.42.404,416_EXPERIMENT_PSYCHOPY_AU2220019_AU2220225,2024.1.5,None,2025-03-31 16h44.40.009621 +0530,
fear.jpg,f,18,3,111,0,237.7954051999841,,,,,,,,,,,,,,,,237.7774557999801,237.7954051999841,239.28877880005166,239.28877880005166,239.30615640000906,239.69190159998834,f,1,0.38699579995591193,None,,,S22,001,2025-03-31_16h40.42.404,416_EXPERIMENT_PSYCHOPY_AU2220019_AU2220225,2024.1.5,None,2025-03-31 16h44.40.009621 +0530,
surprise_lower_blur.jpg,s,18,4,112,5,239.7116868000012,,,,,,,,,,,,,,,,239.69357290002517,239.7116868000012,241.20392979995813,241.20392979995813,241.22068649996072,241.75568770000245,s,1,0.5407045999309048,None,,,S22,001,2025-03-31_16h40.42.404,416_EXPERIMENT_PSYCHOPY_AU2220019_AU2220225,2024.1.5,None,2025-03-31 16h44.40.009621 +0530,
surprise_upper_blur.jpg,s,18,5,113,4,241.77329929999541,,,,,,,,,,,,,,,,241.75769999995828,241.77329929999541,243.2683062000433,243.2683062000433,243.2859564999817,243.52159749995917,f,0,0.2469520999584347,None,,,S22,001,2025-03-31_16h40.42.404,416_EXPERIMENT_PSYCHOPY_AU2220019_AU2220225,2024.1.5,None,2025-03-31 16h44.40.009621 +0530,
surprise_upper_blur.jpg,s,19,0,114,4,243.543517800048,,,,,,,,,,,,,,,,243.52339879993815,243.543517800048,245.033965599956,245.033965599956,245.05113529996015,245.5686934000114,s,1,0.5322563999798149,None,,,S22,001,2025-03-31_16h40.42.404,416_EXPERIMENT_PSYCHOPY_AU2220019_AU2220225,2024.1.5,None,2025-03-31 16h44.40.009621 +0530,
fear.jpg,f,19,1,115,0,245.59578710002825,,,,,,,,,,,,,,,,245.5705785000464,245.59578710002825,247.08144710003398,247.08144710003398,247.0980658000335,247.38382680003997,f,1,0.2851089999312535,None,,,S22,001,2025-03-31_16h40.42.404,416_EXPERIMENT_PSYCHOPY_AU2220019_AU2220225,2024.1.5,None,2025-03-31 16h44.40.009621 +0530,
fear_upper_blur.jpg,f,19,2,116,2,247.4115899000317,,,,,,,,,,,,,,,,247.38711829995736,247.4115899000317,248.89594680001028,248.89594680001028,248.91372559999581,249.36617099994328,f,1,0.464513499988243,None,,,S22,001,2025-03-31_16h40.42.404,416_EXPERIMENT_PSYCHOPY_AU2220019_AU2220225,2024.1.5,None,2025-03-31 16h44.40.009621 +0530,
surprise_lower_blur.jpg,s,19,3,117,5,249.38612749997992,,,,,,,,,,,,,,,,249.36769700003788,249.38612749997992,250.87789400003385,250.87789400003385,250.8945126000326,251.44709030003287,s,1,0.5611214999807999,None,,,S22,001,2025-03-31_16h40.42.404,416_EXPERIMENT_PSYCHOPY_AU2220019_AU2220225,2024.1.5,None,2025-03-31 16h44.40.009621 +0530,
fear_lower_blur.jpg,f,19,4,118,3,251.47116069996264,,,,,,,,,,,,,,,,251.4495675000362,251.47116069996264,252.95964509993792,252.95964509993792,252.9758840999566,253.69464130001143,None,0,,,253.71580739994533,253.71580739994533,S22,001,2025-03-31_16h40.42.404,416_EXPERIMENT_PSYCHOPY_AU2220019_AU2220225,2024.1.5,None,2025-03-31 16h44.40.009621 +0530,
surprise.jpg,s,19,5,119,1,253.71580739994533,,,,,,,,,,,,,,,,253.69650710001588,253.71580739994533,255.206590399961,255.206590399961,255.22310159995686,255.70983459998388,f,0,0.49728819995652884,None,,,S22,001,2025-03-31_16h40.42.404,416_EXPERIMENT_PSYCHOPY_AU2220019_AU2220225,2024.1.5,None,2025-03-31 16h44.40.009621 +0530,
