stimulus_image,correct_response,thisN,thisTrialN,thisRepN,key_resp.keys,key_resp.corr,key_resp.rt,key_resp.duration,loop.thisRepN,loop.thisTrialN,loop.thisN,loop.thisIndex,thisRow.t,notes,guide.started,instructions.started,ins_resp.started,guide.stopped,ins_resp.keys,ins_resp.rt,ins_resp.duration,guide_2.started,text.started,key_resp_2.started,guide_2.stopped,key_resp_2.keys,key_resp_2.rt,key_resp_2.duration,trial.started,fixation.started,image.started,key_resp.started,fixation.stopped,image.stopped,trial.stopped,loop.key_resp.keys,loop.key_resp.corr,loop.key_resp.rt,loop.key_resp.duration,key_resp.stopped,participant,session,date,expName,psychopyVersion,frameRate,expStart,
,,,,,,,,,,,,,,,0.004133099922910333,0.013326099957339466,0.013326099957339466,21.89377439999953,space,21.867083399905823,None,,,,,,,,,,,,,,,,,,,,SA21,104,2025-04-01_12h33.49.629,416_EXPERIMENT_PSYCHOPY_AU2220019_AU2220225,2024.2.4,59.78526327097367,2025-04-01 12h40.35.429114 +0530,
,,,,,,,,,,,,,,,,,,,,,,21.893861899967305,21.901471699937247,21.901471699937247,30.214725799974985,space,8.308357200003229,None,,,,,,,,,,,,,SA21,104,2025-04-01_12h33.49.629,416_EXPERIMENT_PSYCHOPY_AU2220019_AU2220225,2024.2.4,59.78526327097367,2025-04-01 12h40.35.429114 +0530,
fear_lower_blur.jpg,f,0,0,0,None,0,,,0,0,0,3,30.37124829995446,,,,,,,,,,,,,,,,30.36459609994199,30.37124829995446,31.727492699981667,31.727492699981667,31.881598499952815,32.232072399929166,32.46549669990782,None,0,,,,SA21,104,2025-04-01_12h33.49.629,416_EXPERIMENT_PSYCHOPY_AU2220019_AU2220225,2024.2.4,59.78526327097367,2025-04-01 12h40.35.429114 +0530,
surprise.jpg,s,1,1,0,s,1,0.6234646999510005,None,0,1,1,1,32.48870410001837,,,,,,,,,,,,,,,,32.48328149993904,32.48870410001837,33.96363329992164,33.96363329992164,33.99655239994172,34.464295299956575,34.599961899919435,s,1,0.6234646999510005,None,,SA21,104,2025-04-01_12h33.49.629,416_EXPERIMENT_PSYCHOPY_AU2220019_AU2220225,2024.2.4,59.78526327097367,2025-04-01 12h40.35.429114 +0530,
surprise_upper_blur.jpg,s,2,2,0,f,0,0.2968082999577746,None,0,2,2,4,34.61789949995,,,,,,,,,,,,,,,,34.61317029991187,34.61789949995,36.11371479998343,36.11371479998343,36.13189570000395,,36.416792599949986,f,0,0.2968082999577746,None,,SA21,104,2025-04-01_12h33.49.629,416_EXPERIMENT_PSYCHOPY_AU2220019_AU2220225,2024.2.4,59.78526327097367,2025-04-01 12h40.35.429114 +0530,
fear_upper_blur.jpg,f,3,3,0,f,1,0.4060050999978557,None,0,3,3,2,36.43800929991994,,,,,,,,,,,,,,,,36.432786599965766,36.43800929991994,37.93174769997131,37.93174769997131,37.948598099988885,,38.35062109993305,f,1,0.4060050999978557,None,,SA21,104,2025-04-01_12h33.49.629,416_EXPERIMENT_PSYCHOPY_AU2220019_AU2220225,2024.2.4,59.78526327097367,2025-04-01 12h40.35.429114 +0530,
fear.jpg,f,4,4,0,f,1,0.5188852999126539,None,0,4,4,0,38.37266939994879,,,,,,,,,,,,,,,,38.36752119997982,38.37266939994879,39.865552600007504,39.865552600007504,39.882143699913286,40.36493119993247,40.40044250001665,f,1,0.5188852999126539,None,,SA21,104,2025-04-01_12h33.49.629,416_EXPERIMENT_PSYCHOPY_AU2220019_AU2220225,2024.2.4,59.78526327097367,2025-04-01 12h40.35.429114 +0530,
surprise_lower_blur.jpg,s,5,5,0,None,0,,,0,5,5,5,40.420850199996494,,,,,,,,,,,,,,,,40.415891099954024,40.420850199996494,41.914856699993834,41.914856699993834,41.930268900003284,42.431702699977905,42.65012469992507,None,0,,,42.668984699994326,SA21,104,2025-04-01_12h33.49.629,416_EXPERIMENT_PSYCHOPY_AU2220019_AU2220225,2024.2.4,59.78526327097367,2025-04-01 12h40.35.429114 +0530,
surprise.jpg,s,6,0,1,f,0,0.4346966000739485,None,1,0,6,1,42.668984699994326,,,,,,,,,,,,,,,,42.66427820001263,42.668984699994326,44.163174299988896,44.163174299988896,44.18012129992712,,44.614356499980204,f,0,0.4346966000739485,None,,SA21,104,2025-04-01_12h33.49.629,416_EXPERIMENT_PSYCHOPY_AU2220019_AU2220225,2024.2.4,59.78526327097367,2025-04-01 12h40.35.429114 +0530,
fear_upper_blur.jpg,f,7,1,1,f,1,0.5260006999596953,None,1,1,7,2,44.63140229997225,,,,,,,,,,,,,,,,44.626155699952506,44.63140229997225,46.11308909999207,46.11308909999207,46.148333100019954,46.615107399993576,46.650580899906345,f,1,0.5260006999596953,None,,SA21,104,2025-04-01_12h33.49.629,416_EXPERIMENT_PSYCHOPY_AU2220019_AU2220225,2024.2.4,59.78526327097367,2025-04-01 12h40.35.429114 +0530,
surprise_upper_blur.jpg,s,8,2,1,s,1,0.5992430000333115,None,1,2,8,4,46.6717411999125,,,,,,,,,,,,,,,,46.666148499934934,46.6717411999125,48.16515209991485,48.16515209991485,48.181814400013536,48.6653392999433,48.76809369993862,s,1,0.5992430000333115,None,,SA21,104,2025-04-01_12h33.49.629,416_EXPERIMENT_PSYCHOPY_AU2220019_AU2220225,2024.2.4,59.78526327097367,2025-04-01 12h40.35.429114 +0530,
fear.jpg,f,9,3,1,s,0,0.4546107000205666,None,1,3,9,0,48.78757149993908,,,,,,,,,,,,,,,,48.781986200017855,48.78757149993908,50.282009699963965,50.282009699963965,50.298659099964425,,50.75022549997084,s,0,0.4546107000205666,None,,SA21,104,2025-04-01_12h33.49.629,416_EXPERIMENT_PSYCHOPY_AU2220019_AU2220225,2024.2.4,59.78526327097367,2025-04-01 12h40.35.429114 +0530,
surprise_lower_blur.jpg,s,10,4,1,None,0,,,1,4,10,5,50.76807879994158,,,,,,,,,,,,,,,,50.76204519998282,50.76807879994158,52.2653695999179,52.2653695999179,52.281914299936034,52.765050099929795,53.000476000015624,None,0,,,53.020024099969305,SA21,104,2025-04-01_12h33.49.629,416_EXPERIMENT_PSYCHOPY_AU2220019_AU2220225,2024.2.4,59.78526327097367,2025-04-01 12h40.35.429114 +0530,
fear_lower_blur.jpg,f,11,5,1,s,0,0.6892105999868363,None,1,5,11,3,53.020024099969305,,,,,,,,,,,,,,,,53.014840099960566,53.020024099969305,54.51555989996996,54.51555989996996,54.53146329999436,55.014959599939175,55.217164499918,s,0,0.6892105999868363,None,,SA21,104,2025-04-01_12h33.49.629,416_EXPERIMENT_PSYCHOPY_AU2220019_AU2220225,2024.2.4,59.78526327097367,2025-04-01 12h40.35.429114 +0530,
surprise_lower_blur.jpg,s,12,0,2,None,0,,,2,0,12,5,55.23578439990524,,,,,,,,,,,,,,,,55.230405399925075,55.23578439990524,56.729736499954015,56.729736499954015,56.74642889993265,57.23174369998742,57.4667349999072,None,0,,,57.48396589991171,SA21,104,2025-04-01_12h33.49.629,416_EXPERIMENT_PSYCHOPY_AU2220019_AU2220225,2024.2.4,59.78526327097367,2025-04-01 12h40.35.429114 +0530,
fear_upper_blur.jpg,f,13,1,2,f,1,0.41276550001930445,None,2,1,13,2,57.48396589991171,,,,,,,,,,,,,,,,57.479281799984165,57.48396589991171,58.981598699931055,58.981598699931055,58.996442599920556,,59.401090599945746,f,1,0.41276550001930445,None,,SA21,104,2025-04-01_12h33.49.629,416_EXPERIMENT_PSYCHOPY_AU2220019_AU2220225,2024.2.4,59.78526327097367,2025-04-01 12h40.35.429114 +0530,
surprise.jpg,s,14,2,2,s,1,0.6039515000302345,None,2,2,14,1,59.42118689999916,,,,,,,,,,,,,,,,59.415707999956794,59.42118689999916,60.91357209999114,60.91357209999114,60.93244759994559,61.415368199930526,61.53423579991795,s,1,0.6039515000302345,None,,SA21,104,2025-04-01_12h33.49.629,416_EXPERIMENT_PSYCHOPY_AU2220019_AU2220225,2024.2.4,59.78526327097367,2025-04-01 12h40.35.429114 +0530,
fear.jpg,f,15,3,2,f,1,0.40529839997179806,None,2,3,15,0,61.553936399985105,,,,,,,,,,,,,,,,61.54793309990782,61.553936399985105,63.04838940000627,63.04838940000627,63.065792199922726,,63.46731500001624,f,1,0.40529839997179806,None,,SA21,104,2025-04-01_12h33.49.629,416_EXPERIMENT_PSYCHOPY_AU2220019_AU2220225,2024.2.4,59.78526327097367,2025-04-01 12h40.35.429114 +0530,
surprise_upper_blur.jpg,s,16,4,2,s,1,0.49252810003235936,None,2,4,16,4,63.484704999951646,,,,,,,,,,,,,,,,63.479830199969,63.484704999951646,64.9803160999436,64.9803160999436,64.9967195999343,65.48236009990796,65.48445929994341,s,1,0.49252810003235936,None,,SA21,104,2025-04-01_12h33.49.629,416_EXPERIMENT_PSYCHOPY_AU2220019_AU2220225,2024.2.4,59.78526327097367,2025-04-01 12h40.35.429114 +0530,
fear_lower_blur.jpg,f,17,5,2,f,1,0.584582700044848,None,2,5,17,3,65.50313059997279,,,,,,,,,,,,,,,,65.49781490000896,65.50313059997279,66.99756759998854,66.99756759998854,67.0152479999233,67.497639899957,67.5986186999362,f,1,0.584582700044848,None,,SA21,104,2025-04-01_12h33.49.629,416_EXPERIMENT_PSYCHOPY_AU2220019_AU2220225,2024.2.4,59.78526327097367,2025-04-01 12h40.35.429114 +0530,
surprise_upper_blur.jpg,s,18,0,3,s,1,0.6374330000253394,None,3,0,18,4,67.61444309994113,,,,,,,,,,,,,,,,67.60755119996611,67.61444309994113,69.09860049991403,69.09860049991403,69.1151547000045,69.61324470001273,69.74800859997049,s,1,0.6374330000253394,None,,SA21,104,2025-04-01_12h33.49.629,416_EXPERIMENT_PSYCHOPY_AU2220019_AU2220225,2024.2.4,59.78526327097367,2025-04-01 12h40.35.429114 +0530,
surprise_lower_blur.jpg,s,19,1,3,f,0,0.537205700064078,None,3,1,19,5,69.76606419996824,,,,,,,,,,,,,,,,69.76022239995655,69.76606419996824,71.2487003999995,71.2487003999995,71.26502259995323,71.74948919995222,71.80049279995728,f,0,0.537205700064078,None,,SA21,104,2025-04-01_12h33.49.629,416_EXPERIMENT_PSYCHOPY_AU2220019_AU2220225,2024.2.4,59.78526327097367,2025-04-01 12h40.35.429114 +0530,
surprise.jpg,s,20,2,3,None,0,,,3,2,20,1,71.82019639993086,,,,,,,,,,,,,,,,71.81444939994253,71.82019639993086,73.31341269996483,73.31341269996483,73.32983589998912,73.81541049992666,74.04981080000289,None,0,,,74.06855749990791,SA21,104,2025-04-01_12h33.49.629,416_EXPERIMENT_PSYCHOPY_AU2220019_AU2220225,2024.2.4,59.78526327097367,2025-04-01 12h40.35.429114 +0530,
fear_lower_blur.jpg,f,21,3,3,f,1,0.413570599979721,None,3,3,21,3,74.06855749990791,,,,,,,,,,,,,,,,74.06384349998552,74.06855749990791,75.56498319993261,75.56498319993261,75.58125509996898,,75.9848569999449,f,1,0.413570599979721,None,,SA21,104,2025-04-01_12h33.49.629,416_EXPERIMENT_PSYCHOPY_AU2220019_AU2220225,2024.2.4,59.78526327097367,2025-04-01 12h40.35.429114 +0530,
fear_upper_blur.jpg,f,22,4,3,s,0,0.47192829998675734,None,3,4,22,2,76.00385979993735,,,,,,,,,,,,,,,,75.99848650000058,76.00385979993735,77.49682859994937,77.49682859994937,77.51353899994865,78.00255849992391,77.98274549993221,s,0,0.47192829998675734,None,,SA21,104,2025-04-01_12h33.49.629,416_EXPERIMENT_PSYCHOPY_AU2220019_AU2220225,2024.2.4,59.78526327097367,2025-04-01 12h40.35.429114 +0530,
fear.jpg,f,23,5,3,s,0,0.45100840006489307,None,3,5,23,0,78.00255849992391,,,,,,,,,,,,,,,,77.9968429999426,78.00255849992391,79.49838969996199,79.49838969996199,79.51629309996497,,79.96440990001429,s,0,0.45100840006489307,None,,SA21,104,2025-04-01_12h33.49.629,416_EXPERIMENT_PSYCHOPY_AU2220019_AU2220225,2024.2.4,59.78526327097367,2025-04-01 12h40.35.429114 +0530,
surprise.jpg,s,24,0,4,f,0,0.5220904999878258,None,4,0,24,1,79.98351399996318,,,,,,,,,,,,,,,,79.97752830001991,79.98351399996318,81.46531389991287,81.46531389991287,81.49678159994073,81.98244589997921,82.00121149991173,f,0,0.5220904999878258,None,,SA21,104,2025-04-01_12h33.49.629,416_EXPERIMENT_PSYCHOPY_AU2220019_AU2220225,2024.2.4,59.78526327097367,2025-04-01 12h40.35.429114 +0530,
fear_lower_blur.jpg,f,25,1,4,None,0,,,4,1,25,3,82.0209162000101,,,,,,,,,,,,,,,,82.01466599991545,82.0209162000101,83.51538140000775,83.51538140000775,83.53154070000164,84.01485479995608,84.24975409999024,None,0,,,84.26795359991957,SA21,104,2025-04-01_12h33.49.629,416_EXPERIMENT_PSYCHOPY_AU2220019_AU2220225,2024.2.4,59.78526327097367,2025-04-01 12h40.35.429114 +0530,
surprise_lower_blur.jpg,s,26,2,4,s,1,0.6558471999596804,None,4,2,26,5,84.26795359991957,,,,,,,,,,,,,,,,84.26290759991389,84.26795359991957,85.76575469993986,85.76575469993986,85.78145659994334,86.26536630000919,86.43337250000332,s,1,0.6558471999596804,None,,SA21,104,2025-04-01_12h33.49.629,416_EXPERIMENT_PSYCHOPY_AU2220019_AU2220225,2024.2.4,59.78526327097367,2025-04-01 12h40.35.429114 +0530,
fear_upper_blur.jpg,f,27,3,4,f,1,0.48568070004694164,None,4,3,27,2,86.45217699999921,,,,,,,,,,,,,,,,86.44656979991123,86.45217699999921,87.94713469990529,87.94713469990529,87.96378859994002,88.45508380001411,88.43667949992232,f,1,0.48568070004694164,None,,SA21,104,2025-04-01_12h33.49.629,416_EXPERIMENT_PSYCHOPY_AU2220019_AU2220225,2024.2.4,59.78526327097367,2025-04-01 12h40.35.429114 +0530,
surprise_upper_blur.jpg,s,28,4,4,s,1,0.603877899935469,None,4,4,28,4,88.45508380001411,,,,,,,,,,,,,,,,88.44973369990475,88.45508380001411,89.94658629992045,89.94658629992045,89.96364239999093,90.44623519992456,90.56766489997972,s,1,0.603877899935469,None,,SA21,104,2025-04-01_12h33.49.629,416_EXPERIMENT_PSYCHOPY_AU2220019_AU2220225,2024.2.4,59.78526327097367,2025-04-01 12h40.35.429114 +0530,
fear.jpg,f,29,5,4,f,1,0.44540100009180605,None,4,5,29,0,90.58677890000399,,,,,,,,,,,,,,,,90.58149569993839,90.58677890000399,92.08181150001474,92.08181150001474,92.09676919993944,,92.53487600001972,f,1,0.44540100009180605,None,,SA21,104,2025-04-01_12h33.49.629,416_EXPERIMENT_PSYCHOPY_AU2220019_AU2220225,2024.2.4,59.78526327097367,2025-04-01 12h40.35.429114 +0530,
surprise.jpg,s,30,0,5,None,0,,,5,0,30,1,92.55381519999355,,,,,,,,,,,,,,,,92.54859479994047,92.55381519999355,94.04835990001447,94.04835990001447,94.06434739998076,94.54809970001224,94.78301179991104,None,0,,,94.79956710000988,SA21,104,2025-04-01_12h33.49.629,416_EXPERIMENT_PSYCHOPY_AU2220019_AU2220225,2024.2.4,59.78526327097367,2025-04-01 12h40.35.429114 +0530,
fear.jpg,f,31,1,5,f,1,0.5344002000056207,None,5,1,31,0,94.79956710000988,,,,,,,,,,,,,,,,94.7942827999359,94.79956710000988,96.29821049992461,96.29821049992461,96.31515439995565,96.79876409994904,96.83621859992854,f,1,0.5344002000056207,None,,SA21,104,2025-04-01_12h33.49.629,416_EXPERIMENT_PSYCHOPY_AU2220019_AU2220225,2024.2.4,59.78526327097367,2025-04-01 12h40.35.429114 +0530,
surprise_upper_blur.jpg,s,32,2,5,s,1,0.6886058000382036,None,5,2,32,4,96.85525119991507,,,,,,,,,,,,,,,,96.84952699998394,96.85525119991507,98.3478388999356,98.3478388999356,98.36449579999316,98.86534679995384,99.05023079994135,s,1,0.6886058000382036,None,,SA21,104,2025-04-01_12h33.49.629,416_EXPERIMENT_PSYCHOPY_AU2220019_AU2220225,2024.2.4,59.78526327097367,2025-04-01 12h40.35.429114 +0530,
fear_upper_blur.jpg,f,33,3,5,f,1,0.4398079999955371,None,5,3,33,2,99.06755309994332,,,,,,,,,,,,,,,,99.06256719992962,99.06755309994332,100.56543580000289,100.56543580000289,100.56543580000289,,101.01748539996333,f,1,0.4398079999955371,None,,SA21,104,2025-04-01_12h33.49.629,416_EXPERIMENT_PSYCHOPY_AU2220019_AU2220225,2024.2.4,59.78526327097367,2025-04-01 12h40.35.429114 +0530,
fear_lower_blur.jpg,f,34,4,5,None,0,,,5,4,34,3,101.03625619993545,,,,,,,,,,,,,,,,101.03064060001634,101.03625619993545,102.53002619999461,102.53002619999461,102.54685709998012,103.02972909994423,103.26731459994335,None,0,,,103.28587179991882,SA21,104,2025-04-01_12h33.49.629,416_EXPERIMENT_PSYCHOPY_AU2220019_AU2220225,2024.2.4,59.78526327097367,2025-04-01 12h40.35.429114 +0530,
surprise_lower_blur.jpg,s,35,5,5,s,1,0.4140479000052437,None,5,5,35,5,103.28587179991882,,,,,,,,,,,,,,,,103.2807239999529,103.28587179991882,104.78228159993887,104.78228159993887,104.79819190001581,,105.20006309996825,s,1,0.4140479000052437,None,,SA21,104,2025-04-01_12h33.49.629,416_EXPERIMENT_PSYCHOPY_AU2220019_AU2220225,2024.2.4,59.78526327097367,2025-04-01 12h40.35.429114 +0530,
surprise.jpg,s,36,0,6,s,1,0.6116146000567824,None,6,0,36,1,105.21579029993154,,,,,,,,,,,,,,,,105.21061740000732,105.21579029993154,106.71309279999696,106.71309279999696,106.71309279999696,107.21565859997645,107.33451169996988,s,1,0.6116146000567824,None,,SA21,104,2025-04-01_12h33.49.629,416_EXPERIMENT_PSYCHOPY_AU2220019_AU2220225,2024.2.4,59.78526327097367,2025-04-01 12h40.35.429114 +0530,
fear_lower_blur.jpg,f,37,1,6,s,0,0.6554066999815404,None,6,1,37,3,107.35335869994015,,,,,,,,,,,,,,,,107.34739249991253,107.35335869994015,108.84887489990797,108.84887489990797,108.86596869991627,109.36557279992849,109.51792939996812,s,0,0.6554066999815404,None,,SA21,104,2025-04-01_12h33.49.629,416_EXPERIMENT_PSYCHOPY_AU2220019_AU2220225,2024.2.4,59.78526327097367,2025-04-01 12h40.35.429114 +0530,
fear.jpg,f,38,2,6,f,1,0.6161406999453902,None,6,2,38,0,109.53694689995609,,,,,,,,,,,,,,,,109.53103129996452,109.53694689995609,111.03074969991576,111.03074969991576,111.04767140001059,111.53245219995733,111.65137289999984,f,1,0.6161406999453902,None,,SA21,104,2025-04-01_12h33.49.629,416_EXPERIMENT_PSYCHOPY_AU2220019_AU2220225,2024.2.4,59.78526327097367,2025-04-01 12h40.35.429114 +0530,
surprise_lower_blur.jpg,s,39,3,6,s,1,0.506090100039728,None,6,3,39,5,111.66987460001837,,,,,,,,,,,,,,,,111.66512949997559,111.66987460001837,113.16469649993815,113.16469649993815,113.17969949997496,113.66565430001356,113.68477709998842,s,1,0.506090100039728,None,,SA21,104,2025-04-01_12h33.49.629,416_EXPERIMENT_PSYCHOPY_AU2220019_AU2220225,2024.2.4,59.78526327097367,2025-04-01 12h40.35.429114 +0530,
fear_upper_blur.jpg,f,40,4,6,f,1,0.6661187000572681,None,6,4,40,2,113.70479009998962,,,,,,,,,,,,,,,,113.69805509992875,113.70479009998962,115.19787799997721,115.19787799997721,115.21361909992993,115.69742609991226,115.86764269997366,f,1,0.6661187000572681,None,,SA21,104,2025-04-01_12h33.49.629,416_EXPERIMENT_PSYCHOPY_AU2220019_AU2220225,2024.2.4,59.78526327097367,2025-04-01 12h40.35.429114 +0530,
surprise_upper_blur.jpg,s,41,5,6,f,0,0.5792801999486983,None,6,5,41,4,115.88577789999545,,,,,,,,,,,,,,,,115.88075209991075,115.88577789999545,117.38221429998521,117.38221429998521,117.39879509992898,117.88095149991568,117.96672629995737,f,0,0.5792801999486983,None,,SA21,104,2025-04-01_12h33.49.629,416_EXPERIMENT_PSYCHOPY_AU2220019_AU2220225,2024.2.4,59.78526327097367,2025-04-01 12h40.35.429114 +0530,
fear.jpg,f,42,0,7,f,1,0.48216040001716465,None,7,0,42,0,117.98681749997195,,,,,,,,,,,,,,,,117.98124549991917,117.98681749997195,119.4659466999583,119.4659466999583,119.4989523999393,119.98541229998227,119.96659249998629,f,1,0.48216040001716465,None,,SA21,104,2025-04-01_12h33.49.629,416_EXPERIMENT_PSYCHOPY_AU2220019_AU2220225,2024.2.4,59.78526327097367,2025-04-01 12h40.35.429114 +0530,
fear_upper_blur.jpg,f,43,1,7,f,1,0.5713223000057042,None,7,1,43,2,119.98541229998227,,,,,,,,,,,,,,,,119.97996599995531,119.98541229998227,121.48126959998626,121.48126959998626,121.49651789991185,121.99626699998043,122.06529109994881,f,1,0.5713223000057042,None,,SA21,104,2025-04-01_12h33.49.629,416_EXPERIMENT_PSYCHOPY_AU2220019_AU2220225,2024.2.4,59.78526327097367,2025-04-01 12h40.35.429114 +0530,
surprise.jpg,s,44,2,7,s,1,0.5530992000130937,None,7,2,44,1,122.08470160001889,,,,,,,,,,,,,,,,122.07860239990987,122.08470160001889,123.56585389992688,123.56585389992688,123.5991531999316,124.08080739993602,124.1334897999186,s,1,0.5530992000130937,None,,SA21,104,2025-04-01_12h33.49.629,416_EXPERIMENT_PSYCHOPY_AU2220019_AU2220225,2024.2.4,59.78526327097367,2025-04-01 12h40.35.429114 +0530,
fear_lower_blur.jpg,f,45,3,7,f,1,0.4233626000350341,None,7,3,45,3,124.14865769993048,,,,,,,,,,,,,,,,124.14327359991148,124.14865769993048,125.63235199998599,125.63235199998599,125.64911829994526,,126.0674383000005,f,1,0.4233626000350341,None,,SA21,104,2025-04-01_12h33.49.629,416_EXPERIMENT_PSYCHOPY_AU2220019_AU2220225,2024.2.4,59.78526327097367,2025-04-01 12h40.35.429114 +0530,
surprise_upper_blur.jpg,s,46,4,7,None,0,,,7,4,46,4,126.08657539996784,,,,,,,,,,,,,,,,126.08034739992581,126.08657539996784,127.58100879995618,127.58100879995618,127.59594199992716,128.08243449998554,128.3173170000082,None,0,,,128.33701959997416,SA21,104,2025-04-01_12h33.49.629,416_EXPERIMENT_PSYCHOPY_AU2220019_AU2220225,2024.2.4,59.78526327097367,2025-04-01 12h40.35.429114 +0530,
surprise_lower_blur.jpg,s,47,5,7,f,0,0.5324777999194339,None,7,5,47,5,128.33701959997416,,,,,,,,,,,,,,,,128.33162059995811,128.33701959997416,129.83231580001302,129.83231580001302,129.84922829992138,130.33238659997005,130.36844839993864,f,0,0.5324777999194339,None,,SA21,104,2025-04-01_12h33.49.629,416_EXPERIMENT_PSYCHOPY_AU2220019_AU2220225,2024.2.4,59.78526327097367,2025-04-01 12h40.35.429114 +0530,
surprise_lower_blur.jpg,s,48,0,8,f,0,0.5057351000141352,None,8,0,48,5,130.38803789997473,,,,,,,,,,,,,,,,130.38234139990527,130.38803789997473,131.88326389994472,131.88326389994472,131.89932199998293,132.38235799991526,132.40100269997492,f,0,0.5057351000141352,None,,SA21,104,2025-04-01_12h33.49.629,416_EXPERIMENT_PSYCHOPY_AU2220019_AU2220225,2024.2.4,59.78526327097367,2025-04-01 12h40.35.429114 +0530,
fear.jpg,f,49,1,8,f,1,0.5531090000877157,None,8,1,49,0,132.4202930999454,,,,,,,,,,,,,,,,132.41506749996915,132.4202930999454,133.91587239992805,133.91587239992805,133.93258059991058,134.4157600000035,134.4837374999188,f,1,0.5531090000877157,None,,SA21,104,2025-04-01_12h33.49.629,416_EXPERIMENT_PSYCHOPY_AU2220019_AU2220225,2024.2.4,59.78526327097367,2025-04-01 12h40.35.429114 +0530,
surprise.jpg,s,50,2,8,s,1,0.5174910000059754,None,8,2,50,1,134.50439169991296,,,,,,,,,,,,,,,,134.49805900000501,134.50439169991296,135.99926309997682,135.99926309997682,136.01593449991196,136.49870849994477,136.53330909996293,s,1,0.5174910000059754,None,,SA21,104,2025-04-01_12h33.49.629,416_EXPERIMENT_PSYCHOPY_AU2220019_AU2220225,2024.2.4,59.78526327097367,2025-04-01 12h40.35.429114 +0530,
fear_lower_blur.jpg,f,51,3,8,f,1,0.4622259000316262,None,8,3,51,3,136.55161789990962,,,,,,,,,,,,,,,,136.547135300003,136.55161789990962,138.04684460000135,138.04684460000135,138.06311619991902,,138.51479329995345,f,1,0.4622259000316262,None,,SA21,104,2025-04-01_12h33.49.629,416_EXPERIMENT_PSYCHOPY_AU2220019_AU2220225,2024.2.4,59.78526327097367,2025-04-01 12h40.35.429114 +0530,
fear_upper_blur.jpg,f,52,4,8,s,0,0.42303190007805824,None,8,4,52,2,138.53343760001007,,,,,,,,,,,,,,,,138.52771439997014,138.53343760001007,140.01514199993107,140.01514199993107,140.04841159994248,,140.45052389998455,s,0,0.42303190007805824,None,,SA21,104,2025-04-01_12h33.49.629,416_EXPERIMENT_PSYCHOPY_AU2220019_AU2220225,2024.2.4,59.78526327097367,2025-04-01 12h40.35.429114 +0530,
surprise_upper_blur.jpg,s,53,5,8,s,1,0.6143727999879047,None,8,5,53,4,140.46859900001436,,,,,,,,,,,,,,,,140.46316479996312,140.46859900001436,141.96540679992177,141.96540679992177,141.98179079999682,142.46525919996202,142.58408089994919,s,1,0.6143727999879047,None,,SA21,104,2025-04-01_12h33.49.629,416_EXPERIMENT_PSYCHOPY_AU2220019_AU2220225,2024.2.4,59.78526327097367,2025-04-01 12h40.35.429114 +0530,
surprise_upper_blur.jpg,s,54,0,9,s,1,0.6286355999764055,None,9,0,54,4,142.60244619997684,,,,,,,,,,,,,,,,142.59717650001403,142.60244619997684,144.0981824999908,144.0981824999908,144.1149916999275,144.59794889995828,144.73389759997372,s,1,0.6286355999764055,None,,SA21,104,2025-04-01_12h33.49.629,416_EXPERIMENT_PSYCHOPY_AU2220019_AU2220225,2024.2.4,59.78526327097367,2025-04-01 12h40.35.429114 +0530,
fear_upper_blur.jpg,f,55,1,9,s,0,0.45062030002009124,None,9,1,55,2,144.75214140000753,,,,,,,,,,,,,,,,144.74683429999277,144.75214140000753,146.24844619992655,146.24844619992655,146.26575269992463,,146.70233220001683,s,0,0.45062030002009124,None,,SA21,104,2025-04-01_12h33.49.629,416_EXPERIMENT_PSYCHOPY_AU2220019_AU2220225,2024.2.4,59.78526327097367,2025-04-01 12h40.35.429114 +0530,
fear_lower_blur.jpg,f,56,2,9,f,1,0.6604676999850199,None,9,2,56,3,146.72138569992967,,,,,,,,,,,,,,,,146.71545679995324,146.72138569992967,148.21333729999606,148.21333729999606,148.22974899993278,148.7149955999339,148.88120309996884,f,1,0.6604676999850199,None,,SA21,104,2025-04-01_12h33.49.629,416_EXPERIMENT_PSYCHOPY_AU2220019_AU2220225,2024.2.4,59.78526327097367,2025-04-01 12h40.35.429114 +0530,
surprise_lower_blur.jpg,s,57,3,9,f,0,0.6095585000002757,None,9,3,57,5,148.90008539997507,,,,,,,,,,,,,,,,148.894696299918,148.90008539997507,150.3815273999935,150.3815273999935,150.4151405999437,150.881816899986,150.99996509996708,f,0,0.6095585000002757,None,,SA21,104,2025-04-01_12h33.49.629,416_EXPERIMENT_PSYCHOPY_AU2220019_AU2220225,2024.2.4,59.78526327097367,2025-04-01 12h40.35.429114 +0530,
surprise.jpg,s,58,4,9,f,0,0.46216210001148283,None,9,4,58,1,151.0192701999331,,,,,,,,,,,,,,,,151.0137199999299,151.0192701999331,152.51513830001932,152.51513830001932,152.53180979995523,,152.98386149993166,f,0,0.46216210001148283,None,,SA21,104,2025-04-01_12h33.49.629,416_EXPERIMENT_PSYCHOPY_AU2220019_AU2220225,2024.2.4,59.78526327097367,2025-04-01 12h40.35.429114 +0530,
fear.jpg,f,59,5,9,None,0,,,9,5,59,0,153.00260519993026,,,,,,,,,,,,,,,,152.99746709992178,153.00260519993026,154.49629209993873,154.49629209993873,154.51330130000133,154.9963195999153,155.23308819998056,None,0,,,155.25219049991574,SA21,104,2025-04-01_12h33.49.629,416_EXPERIMENT_PSYCHOPY_AU2220019_AU2220225,2024.2.4,59.78526327097367,2025-04-01 12h40.35.429114 +0530,
fear_upper_blur.jpg,f,60,0,10,None,0,,,10,0,60,2,155.25219049991574,,,,,,,,,,,,,,,,155.24686830001883,155.25219049991574,156.74843659996986,156.74843659996986,156.76519309997093,157.24867489992175,157.48295079998206,None,0,,,157.5041724999901,SA21,104,2025-04-01_12h33.49.629,416_EXPERIMENT_PSYCHOPY_AU2220019_AU2220225,2024.2.4,59.78526327097367,2025-04-01 12h40.35.429114 +0530,
surprise.jpg,s,61,1,10,s,1,0.5563958999700844,None,10,1,61,1,157.5041724999901,,,,,,,,,,,,,,,,157.49853079998866,157.5041724999901,158.99722749996,158.99722749996,159.0138337999815,159.49806879996322,159.56782939995173,s,1,0.5563958999700844,None,,SA21,104,2025-04-01_12h33.49.629,416_EXPERIMENT_PSYCHOPY_AU2220019_AU2220225,2024.2.4,59.78526327097367,2025-04-01 12h40.35.429114 +0530,
fear.jpg,f,62,2,10,s,0,0.48638200003188103,None,10,2,62,0,159.58569799992256,,,,,,,,,,,,,,,,159.58018889999948,159.58569799992256,161.08152759994846,161.08152759994846,161.09847209998406,161.58290039992426,161.5850743999472,s,0,0.48638200003188103,None,,SA21,104,2025-04-01_12h33.49.629,416_EXPERIMENT_PSYCHOPY_AU2220019_AU2220225,2024.2.4,59.78526327097367,2025-04-01 12h40.35.429114 +0530,
surprise_upper_blur.jpg,s,63,3,10,f,0,0.5614571999758482,None,10,3,63,4,161.60325139993802,,,,,,,,,,,,,,,,161.59746149997227,161.60325139993802,163.09836419997737,163.09836419997737,163.115458699991,163.598396699992,163.66693890001625,f,0,0.5614571999758482,None,,SA21,104,2025-04-01_12h33.49.629,416_EXPERIMENT_PSYCHOPY_AU2220019_AU2220225,2024.2.4,59.78526327097367,2025-04-01 12h40.35.429114 +0530,
surprise_lower_blur.jpg,s,64,4,10,None,0,,,10,4,64,5,163.68547119991854,,,,,,,,,,,,,,,,163.6803629999049,163.68547119991854,165.1806470999727,165.1806470999727,165.19724769995082,165.68146140000317,165.91571219998877,None,0,,,165.93301439995412,SA21,104,2025-04-01_12h33.49.629,416_EXPERIMENT_PSYCHOPY_AU2220019_AU2220225,2024.2.4,59.78526327097367,2025-04-01 12h40.35.429114 +0530,
fear_lower_blur.jpg,f,65,5,10,None,0,,,10,5,65,3,165.93301439995412,,,,,,,,,,,,,,,,165.92799379990902,165.93301439995412,167.43181709991768,167.43181709991768,167.44837719993666,167.93172889994457,168.1662468999857,None,0,,,168.18480079993606,SA21,104,2025-04-01_12h33.49.629,416_EXPERIMENT_PSYCHOPY_AU2220019_AU2220225,2024.2.4,59.78526327097367,2025-04-01 12h40.35.429114 +0530,
fear.jpg,f,66,0,11,None,0,,,11,0,66,0,168.18480079993606,,,,,,,,,,,,,,,,168.17962259997148,168.18480079993606,169.6819272999419,169.6819272999419,169.69859019992873,170.18171939998865,170.41643509990536,None,0,,,170.4343116999371,SA21,104,2025-04-01_12h33.49.629,416_EXPERIMENT_PSYCHOPY_AU2220019_AU2220225,2024.2.4,59.78526327097367,2025-04-01 12h40.35.429114 +0530,
surprise_upper_blur.jpg,s,67,1,11,s,1,0.6557655999204144,None,11,1,67,4,170.4343116999371,,,,,,,,,,,,,,,,170.42930359998718,170.4343116999371,171.93189199990593,171.93189199990593,171.94883289991412,172.4315111999167,172.6006250999635,s,1,0.6557655999204144,None,,SA21,104,2025-04-01_12h33.49.629,416_EXPERIMENT_PSYCHOPY_AU2220019_AU2220225,2024.2.4,59.78526327097367,2025-04-01 12h40.35.429114 +0530,
surprise_lower_blur.jpg,s,68,2,11,f,0,0.5684541999362409,None,11,2,68,5,172.620184600004,,,,,,,,,,,,,,,,172.6142446999438,172.620184600004,174.11577269993722,174.11577269993722,174.13158409995958,174.62995859992225,174.7008442999795,f,0,0.5684541999362409,None,,SA21,104,2025-04-01_12h33.49.629,416_EXPERIMENT_PSYCHOPY_AU2220019_AU2220225,2024.2.4,59.78526327097367,2025-04-01 12h40.35.429114 +0530,
fear_upper_blur.jpg,f,69,3,11,f,1,0.41809639998245984,None,11,3,69,2,174.72019719996024,,,,,,,,,,,,,,,,174.7141611999832,174.72019719996024,176.2151686999714,176.2151686999714,176.23200849990826,,176.6500179999275,f,1,0.41809639998245984,None,,SA21,104,2025-04-01_12h33.49.629,416_EXPERIMENT_PSYCHOPY_AU2220019_AU2220225,2024.2.4,59.78526327097367,2025-04-01 12h40.35.429114 +0530,
fear_lower_blur.jpg,f,70,4,11,f,1,0.5440041999099776,None,11,4,70,3,176.66853179992177,,,,,,,,,,,,,,,,176.66333799995482,176.66853179992177,178.1639126999071,178.1639126999071,178.1804310999578,178.6652347999625,178.71743039996363,f,1,0.5440041999099776,None,,SA21,104,2025-04-01_12h33.49.629,416_EXPERIMENT_PSYCHOPY_AU2220019_AU2220225,2024.2.4,59.78526327097367,2025-04-01 12h40.35.429114 +0530,
surprise.jpg,s,71,5,11,s,1,0.6245966999558732,None,11,5,71,1,178.73660980002023,,,,,,,,,,,,,,,,178.73130629991647,178.73660980002023,180.2325506999623,180.2325506999623,180.24848239996936,180.73148720001336,180.86646960000508,s,1,0.6245966999558732,None,,SA21,104,2025-04-01_12h33.49.629,416_EXPERIMENT_PSYCHOPY_AU2220019_AU2220225,2024.2.4,59.78526327097367,2025-04-01 12h40.35.429114 +0530,
fear.jpg,f,72,0,12,f,1,0.48345529998186976,None,12,0,72,0,180.88224649999756,,,,,,,,,,,,,,,,180.87737449991982,180.88224649999756,182.37985089991707,182.37985089991707,182.39662179991137,182.882516499958,182.86742069991305,f,1,0.48345529998186976,None,,SA21,104,2025-04-01_12h33.49.629,416_EXPERIMENT_PSYCHOPY_AU2220019_AU2220225,2024.2.4,59.78526327097367,2025-04-01 12h40.35.429114 +0530,
surprise_upper_blur.jpg,s,73,1,12,s,1,0.5492730000987649,None,12,1,73,4,182.882516499958,,,,,,,,,,,,,,,,182.87743889994454,182.882516499958,184.38235410000198,184.38235410000198,184.38235410000198,184.88195189996623,184.95033269992564,s,1,0.5492730000987649,None,,SA21,104,2025-04-01_12h33.49.629,416_EXPERIMENT_PSYCHOPY_AU2220019_AU2220225,2024.2.4,59.78526327097367,2025-04-01 12h40.35.429114 +0530,
fear_lower_blur.jpg,f,74,2,12,f,1,0.5805899000260979,None,12,2,74,3,184.96933360002004,,,,,,,,,,,,,,,,184.96359219995793,184.96933360002004,186.46497009997256,186.46497009997256,186.48068729997613,186.96387599990703,187.04913279996254,f,1,0.5805899000260979,None,,SA21,104,2025-04-01_12h33.49.629,416_EXPERIMENT_PSYCHOPY_AU2220019_AU2220225,2024.2.4,59.78526327097367,2025-04-01 12h40.35.429114 +0530,
fear_upper_blur.jpg,f,75,3,12,f,1,0.4171792999841273,None,12,3,75,2,187.06463799998164,,,,,,,,,,,,,,,,187.0587565000169,187.06463799998164,188.5631692999741,188.5631692999741,188.5800070000114,,188.98353959992528,f,1,0.4171792999841273,None,,SA21,104,2025-04-01_12h33.49.629,416_EXPERIMENT_PSYCHOPY_AU2220019_AU2220225,2024.2.4,59.78526327097367,2025-04-01 12h40.35.429114 +0530,
surprise_lower_blur.jpg,s,76,4,12,None,0,,,12,4,76,5,189.00275949994102,,,,,,,,,,,,,,,,188.99696349992882,189.00275949994102,190.4985927999951,190.4985927999951,190.51495779992547,190.99832529993728,191.23379580001347,None,0,,,191.2519667999586,SA21,104,2025-04-01_12h33.49.629,416_EXPERIMENT_PSYCHOPY_AU2220019_AU2220225,2024.2.4,59.78526327097367,2025-04-01 12h40.35.429114 +0530,
surprise.jpg,s,77,5,12,s,1,0.33466260007116944,None,12,5,77,1,191.2519667999586,,,,,,,,,,,,,,,,191.24774199991953,191.2519667999586,192.74869189993478,192.74869189993478,192.76506839995272,,193.1003277999116,s,1,0.33466260007116944,None,,SA21,104,2025-04-01_12h33.49.629,416_EXPERIMENT_PSYCHOPY_AU2220019_AU2220225,2024.2.4,59.78526327097367,2025-04-01 12h40.35.429114 +0530,
surprise.jpg,s,78,0,13,s,1,0.5248571000993252,None,13,0,78,1,193.11681559996214,,,,,,,,,,,,,,,,193.1124995999271,193.11681559996214,194.6149626999395,194.6149626999395,194.63196579995565,195.13203779992182,195.15068069996778,s,1,0.5248571000993252,None,,SA21,104,2025-04-01_12h33.49.629,416_EXPERIMENT_PSYCHOPY_AU2220019_AU2220225,2024.2.4,59.78526327097367,2025-04-01 12h40.35.429114 +0530,
fear_lower_blur.jpg,f,79,1,13,f,1,0.6288175999652594,None,13,1,79,3,195.17042649991345,,,,,,,,,,,,,,,,195.16435779992025,195.17042649991345,196.6655793999089,196.6655793999089,196.68133729998954,197.1650983999716,197.3005987999495,f,1,0.6288175999652594,None,,SA21,104,2025-04-01_12h33.49.629,416_EXPERIMENT_PSYCHOPY_AU2220019_AU2220225,2024.2.4,59.78526327097367,2025-04-01 12h40.35.429114 +0530,
surprise_lower_blur.jpg,s,80,2,13,f,0,0.5723990999395028,None,13,2,80,5,197.3185855000047,,,,,,,,,,,,,,,,197.3140372999478,197.3185855000047,198.8152910999488,198.8152910999488,198.83156379999127,199.3299057999393,199.40058719995432,f,0,0.5723990999395028,None,,SA21,104,2025-04-01_12h33.49.629,416_EXPERIMENT_PSYCHOPY_AU2220019_AU2220225,2024.2.4,59.78526327097367,2025-04-01 12h40.35.429114 +0530,
surprise_upper_blur.jpg,s,81,3,13,None,0,,,13,3,81,4,199.41895849991124,,,,,,,,,,,,,,,,199.41341189993545,199.41895849991124,200.91493149998132,200.91493149998132,200.93210410000756,201.41579349990934,201.64932819991373,None,0,,,201.66695509990677,SA21,104,2025-04-01_12h33.49.629,416_EXPERIMENT_PSYCHOPY_AU2220019_AU2220225,2024.2.4,59.78526327097367,2025-04-01 12h40.35.429114 +0530,
fear.jpg,f,82,4,13,f,1,0.29818050004541874,None,13,4,82,0,201.66695509990677,,,,,,,,,,,,,,,,201.66200090001803,201.66695509990677,203.1647873999318,203.1647873999318,203.18189449992497,,203.46799299994018,f,1,0.29818050004541874,None,,SA21,104,2025-04-01_12h33.49.629,416_EXPERIMENT_PSYCHOPY_AU2220019_AU2220225,2024.2.4,59.78526327097367,2025-04-01 12h40.35.429114 +0530,
fear_upper_blur.jpg,f,83,5,13,s,0,0.43061799998395145,None,13,5,83,2,203.48572349990718,,,,,,,,,,,,,,,,203.47994499991182,203.48572349990718,204.98152959998697,204.98152959998697,204.99678519996814,,205.41747009998653,s,0,0.43061799998395145,None,,SA21,104,2025-04-01_12h33.49.629,416_EXPERIMENT_PSYCHOPY_AU2220019_AU2220225,2024.2.4,59.78526327097367,2025-04-01 12h40.35.429114 +0530,
surprise_upper_blur.jpg,s,84,0,14,f,0,0.5316491000121459,None,14,0,84,4,205.43581890000496,,,,,,,,,,,,,,,,205.4305594000034,205.43581890000496,206.93019659991842,206.93019659991842,206.94890730001498,207.4295214000158,207.46813519997522,f,0,0.5316491000121459,None,,SA21,104,2025-04-01_12h33.49.629,416_EXPERIMENT_PSYCHOPY_AU2220019_AU2220225,2024.2.4,59.78526327097367,2025-04-01 12h40.35.429114 +0530,
surprise_lower_blur.jpg,s,85,1,14,None,0,,,14,1,85,5,207.48675129993353,,,,,,,,,,,,,,,,207.4812271000119,207.48675129993353,208.98219429992605,208.98219429992605,208.99841819994617,209.48178659996483,209.71660269994754,None,0,,,209.73485299991444,SA21,104,2025-04-01_12h33.49.629,416_EXPERIMENT_PSYCHOPY_AU2220019_AU2220225,2024.2.4,59.78526327097367,2025-04-01 12h40.35.429114 +0530,
fear_upper_blur.jpg,f,86,2,14,f,1,0.6082063999492675,None,14,2,86,2,209.73485299991444,,,,,,,,,,,,,,,,209.72973359993193,209.73485299991444,211.2317471000133,211.2317471000133,211.2490444999421,211.73167479992844,211.85052949993405,f,1,0.6082063999492675,None,,SA21,104,2025-04-01_12h33.49.629,416_EXPERIMENT_PSYCHOPY_AU2220019_AU2220225,2024.2.4,59.78526327097367,2025-04-01 12h40.35.429114 +0530,
surprise.jpg,s,87,3,14,s,1,0.6748309000395238,None,14,3,87,1,211.86913939996157,,,,,,,,,,,,,,,,211.8636948999483,211.86913939996157,213.36495219997596,213.36495219997596,213.3800533999456,213.86508649995085,214.04812159994617,s,1,0.6748309000395238,None,,SA21,104,2025-04-01_12h33.49.629,416_EXPERIMENT_PSYCHOPY_AU2220019_AU2220225,2024.2.4,59.78526327097367,2025-04-01 12h40.35.429114 +0530,
fear_lower_blur.jpg,f,88,4,14,f,1,0.4899754000362009,None,14,4,88,3,214.06601910002064,,,,,,,,,,,,,,,,214.06047479994595,214.06601910002064,215.5490999999456,215.5490999999456,215.56525029998738,216.04811289999634,216.0500568000134,f,1,0.4899754000362009,None,,SA21,104,2025-04-01_12h33.49.629,416_EXPERIMENT_PSYCHOPY_AU2220019_AU2220225,2024.2.4,59.78526327097367,2025-04-01 12h40.35.429114 +0530,
fear.jpg,f,89,5,14,f,1,0.5907222999958321,None,14,5,89,0,216.06943009991664,,,,,,,,,,,,,,,,216.0632058000192,216.06943009991664,217.5493602999486,217.5493602999486,217.58199619990773,218.04838249995373,218.14811009995174,f,1,0.5907222999958321,None,,SA21,104,2025-04-01_12h33.49.629,416_EXPERIMENT_PSYCHOPY_AU2220019_AU2220225,2024.2.4,59.78526327097367,2025-04-01 12h40.35.429114 +0530,
surprise_lower_blur.jpg,s,90,0,15,s,1,0.6474892999976873,None,15,0,90,5,218.1662406999385,,,,,,,,,,,,,,,,218.16065979993436,218.1662406999385,219.6484693000093,219.6484693000093,219.68162029993255,220.14841789996717,220.3009408999933,s,1,0.6474892999976873,None,,SA21,104,2025-04-01_12h33.49.629,416_EXPERIMENT_PSYCHOPY_AU2220019_AU2220225,2024.2.4,59.78526327097367,2025-04-01 12h40.35.429114 +0530,
fear_lower_blur.jpg,f,91,1,15,None,0,,,15,1,91,3,220.31946629995946,,,,,,,,,,,,,,,,220.31377459992655,220.31946629995946,221.81518959999084,221.81518959999084,221.83145159995183,222.31520269997418,222.54999929992482,None,0,,,222.5678475999739,SA21,104,2025-04-01_12h33.49.629,416_EXPERIMENT_PSYCHOPY_AU2220019_AU2220225,2024.2.4,59.78526327097367,2025-04-01 12h40.35.429114 +0530,
surprise_upper_blur.jpg,s,92,2,15,f,0,0.29808660002890974,None,15,2,92,4,222.5678475999739,,,,,,,,,,,,,,,,222.5626339999726,222.5678475999739,224.06503299996257,224.06503299996257,224.08195459994022,,224.36776439996902,f,0,0.29808660002890974,None,,SA21,104,2025-04-01_12h33.49.629,416_EXPERIMENT_PSYCHOPY_AU2220019_AU2220225,2024.2.4,59.78526327097367,2025-04-01 12h40.35.429114 +0530,
fear_upper_blur.jpg,f,93,3,15,f,1,0.5589269999181852,None,15,3,93,2,224.38578789995518,,,,,,,,,,,,,,,,224.3803330999799,224.38578789995518,225.88159849995282,225.88159849995282,225.89828520000447,226.3820098999422,226.45036969997454,f,1,0.5589269999181852,None,,SA21,104,2025-04-01_12h33.49.629,416_EXPERIMENT_PSYCHOPY_AU2220019_AU2220225,2024.2.4,59.78526327097367,2025-04-01 12h40.35.429114 +0530,
surprise.jpg,s,94,4,15,s,1,0.5488133999751881,None,15,4,94,1,226.4681152999401,,,,,,,,,,,,,,,,226.46179590001702,226.4681152999401,227.9659057999961,227.9659057999961,227.98220749991015,228.48236979998183,228.51764829992317,s,1,0.5488133999751881,None,,SA21,104,2025-04-01_12h33.49.629,416_EXPERIMENT_PSYCHOPY_AU2220019_AU2220225,2024.2.4,59.78526327097367,2025-04-01 12h40.35.429114 +0530,
fear.jpg,f,95,5,15,s,0,0.44450149999465793,None,15,5,95,0,228.53715059999377,,,,,,,,,,,,,,,,228.531556300004,228.53715059999377,230.03258459991775,230.03258459991775,230.04888159991242,,230.48427939997055,s,0,0.44450149999465793,None,,SA21,104,2025-04-01_12h33.49.629,416_EXPERIMENT_PSYCHOPY_AU2220019_AU2220225,2024.2.4,59.78526327097367,2025-04-01 12h40.35.429114 +0530,
fear_lower_blur.jpg,f,96,0,16,f,1,0.6156800000462681,None,16,0,96,3,230.50249909993727,,,,,,,,,,,,,,,,230.49685629992746,230.50249909993727,231.99901949998457,231.99901949998457,232.01559590001125,232.49908959993627,232.61845329997595,f,1,0.6156800000462681,None,,SA21,104,2025-04-01_12h33.49.629,416_EXPERIMENT_PSYCHOPY_AU2220019_AU2220225,2024.2.4,59.78526327097367,2025-04-01 12h40.35.429114 +0530,
surprise_lower_blur.jpg,s,97,1,16,f,0,0.6618143999949098,None,16,1,97,5,232.63772379991133,,,,,,,,,,,,,,,,232.63186419999693,232.63772379991133,234.13258719991427,234.13258719991427,234.14874919992872,234.63228789996356,234.80124679999426,f,0,0.6618143999949098,None,,SA21,104,2025-04-01_12h33.49.629,416_EXPERIMENT_PSYCHOPY_AU2220019_AU2220225,2024.2.4,59.78526327097367,2025-04-01 12h40.35.429114 +0530,
fear.jpg,f,98,2,16,s,0,0.6011405000463128,None,16,2,98,0,234.81969949998893,,,,,,,,,,,,,,,,234.814465799951,234.81969949998893,236.31614299991634,236.31614299991634,236.33243319997564,236.81543019996025,236.93375999992713,s,0,0.6011405000463128,None,,SA21,104,2025-04-01_12h33.49.629,416_EXPERIMENT_PSYCHOPY_AU2220019_AU2220225,2024.2.4,59.78526327097367,2025-04-01 12h40.35.429114 +0530,
surprise.jpg,s,99,3,16,f,0,0.5357570999767631,None,16,3,99,1,236.94998489995487,,,,,,,,,,,,,,,,236.9451579999877,236.94998489995487,238.44902319996618,238.44902319996618,238.46618330001365,238.9488717999775,239.00007119996008,f,0,0.5357570999767631,None,,SA21,104,2025-04-01_12h33.49.629,416_EXPERIMENT_PSYCHOPY_AU2220019_AU2220225,2024.2.4,59.78526327097367,2025-04-01 12h40.35.429114 +0530,
surprise_upper_blur.jpg,s,100,4,16,f,0,0.6188089998904616,None,16,4,100,4,239.0168948000064,,,,,,,,,,,,,,,,239.01201539998874,239.0168948000064,240.4990775999613,240.4990775999613,240.53040249994956,240.9963878999697,241.1341905000154,f,0,0.6188089998904616,None,,SA21,104,2025-04-01_12h33.49.629,416_EXPERIMENT_PSYCHOPY_AU2220019_AU2220225,2024.2.4,59.78526327097367,2025-04-01 12h40.35.429114 +0530,
fear_upper_blur.jpg,f,101,5,16,f,1,0.6310418000211939,None,16,5,101,2,241.1528815999627,,,,,,,,,,,,,,,,241.14732929994352,241.1528815999627,242.64650539995637,242.64650539995637,242.66282119997777,243.14681669999845,243.28230969992,f,1,0.6310418000211939,None,,SA21,104,2025-04-01_12h33.49.629,416_EXPERIMENT_PSYCHOPY_AU2220019_AU2220225,2024.2.4,59.78526327097367,2025-04-01 12h40.35.429114 +0530,
surprise_upper_blur.jpg,s,102,0,17,s,1,0.4628702999325469,None,17,0,102,4,243.30020890000742,,,,,,,,,,,,,,,,243.2940492000198,243.30020890000742,244.79748710000422,244.79748710000422,244.81331979995593,,245.2683040999109,s,1,0.4628702999325469,None,,SA21,104,2025-04-01_12h33.49.629,416_EXPERIMENT_PSYCHOPY_AU2220019_AU2220225,2024.2.4,59.78526327097367,2025-04-01 12h40.35.429114 +0530,
surprise.jpg,s,103,1,17,s,1,0.5399934999877587,None,17,1,103,1,245.28778030001558,,,,,,,,,,,,,,,,245.28207600000314,245.28778030001558,246.78238919994328,246.78238919994328,246.79898079996929,247.2978725999128,247.33247059991118,s,1,0.5399934999877587,None,,SA21,104,2025-04-01_12h33.49.629,416_EXPERIMENT_PSYCHOPY_AU2220019_AU2220225,2024.2.4,59.78526327097367,2025-04-01 12h40.35.429114 +0530,
fear_lower_blur.jpg,f,104,2,17,f,1,0.5656261000549421,None,17,2,104,3,247.34818229998928,,,,,,,,,,,,,,,,247.34264569997322,247.34818229998928,248.83197609998751,248.83197609998751,248.8478869999526,249.3317297999747,249.40104019991122,f,1,0.5656261000549421,None,,SA21,104,2025-04-01_12h33.49.629,416_EXPERIMENT_PSYCHOPY_AU2220019_AU2220225,2024.2.4,59.78526327097367,2025-04-01 12h40.35.429114 +0530,
surprise_lower_blur.jpg,s,105,3,17,None,0,,,17,3,105,5,249.4157589999959,,,,,,,,,,,,,,,,249.41073339991271,249.4157589999959,250.91386079997756,250.91386079997756,250.93043820001185,251.41514439997263,251.64920069999062,None,0,,,251.66600309999194,SA21,104,2025-04-01_12h33.49.629,416_EXPERIMENT_PSYCHOPY_AU2220019_AU2220225,2024.2.4,59.78526327097367,2025-04-01 12h40.35.429114 +0530,
fear.jpg,f,106,4,17,f,1,0.6114860000088811,None,17,4,106,0,251.66600309999194,,,,,,,,,,,,,,,,251.6593955999706,251.66600309999194,253.1639840999851,253.1639840999851,253.18267459992785,253.66556919994764,253.78502309997566,f,1,0.6114860000088811,None,,SA21,104,2025-04-01_12h33.49.629,416_EXPERIMENT_PSYCHOPY_AU2220019_AU2220225,2024.2.4,59.78526327097367,2025-04-01 12h40.35.429114 +0530,
fear_upper_blur.jpg,f,107,5,17,None,0,,,17,5,107,2,253.80307259992696,,,,,,,,,,,,,,,,253.7977787000127,253.80307259992696,255.29891649994534,255.29891649994534,255.3156082999194,255.79901680001058,256.0335415999871,None,0,,,256.05277329997625,SA21,104,2025-04-01_12h33.49.629,416_EXPERIMENT_PSYCHOPY_AU2220019_AU2220225,2024.2.4,59.78526327097367,2025-04-01 12h40.35.429114 +0530,
surprise.jpg,s,108,0,18,s,1,0.4401932000182569,None,18,0,108,1,256.05277329997625,,,,,,,,,,,,,,,,256.0480830000015,256.05277329997625,257.54669579991605,257.54669579991605,257.5633185999468,,258.00089739996474,s,1,0.4401932000182569,None,,SA21,104,2025-04-01_12h33.49.629,416_EXPERIMENT_PSYCHOPY_AU2220019_AU2220225,2024.2.4,59.78526327097367,2025-04-01 12h40.35.429114 +0530,
fear_lower_blur.jpg,f,109,1,18,f,1,0.542250799946487,None,18,1,109,3,258.0203883999493,,,,,,,,,,,,,,,,258.01473359996453,258.0203883999493,259.51499539997894,259.51499539997894,259.53201789991,260.01525119994767,260.0666564999847,f,1,0.542250799946487,None,,SA21,104,2025-04-01_12h33.49.629,416_EXPERIMENT_PSYCHOPY_AU2220019_AU2220225,2024.2.4,59.78526327097367,2025-04-01 12h40.35.429114 +0530,
surprise_upper_blur.jpg,s,110,2,18,f,0,0.5513673999812454,None,18,2,110,4,260.08539559994824,,,,,,,,,,,,,,,,260.08014289999846,260.08539559994824,261.58097779995296,261.58097779995296,261.5970298999455,262.0802922999719,262.14768840000033,f,0,0.5513673999812454,None,,SA21,104,2025-04-01_12h33.49.629,416_EXPERIMENT_PSYCHOPY_AU2220019_AU2220225,2024.2.4,59.78526327097367,2025-04-01 12h40.35.429114 +0530,
fear_upper_blur.jpg,f,111,3,18,f,1,0.5409703999757767,None,18,3,111,2,262.16458779992536,,,,,,,,,,,,,,,,262.15762650000397,262.16458779992536,263.6481668999186,263.6481668999186,263.6641377999913,264.1482390000019,264.1981274000136,f,1,0.5409703999757767,None,,SA21,104,2025-04-01_12h33.49.629,416_EXPERIMENT_PSYCHOPY_AU2220019_AU2220225,2024.2.4,59.78526327097367,2025-04-01 12h40.35.429114 +0530,
surprise_lower_blur.jpg,s,112,4,18,s,1,0.49937609990593046,None,18,4,112,5,264.2161393999122,,,,,,,,,,,,,,,,264.21081630000845,264.2161393999122,265.69848479994107,265.69848479994107,265.7152473999886,266.1981806999538,266.20166929997504,s,1,0.49937609990593046,None,,SA21,104,2025-04-01_12h33.49.629,416_EXPERIMENT_PSYCHOPY_AU2220019_AU2220225,2024.2.4,59.78526327097367,2025-04-01 12h40.35.429114 +0530,
fear.jpg,f,113,5,18,f,1,0.46717610000632703,None,18,5,113,0,266.2209917999571,,,,,,,,,,,,,,,,266.2160305000143,266.2209917999571,267.71523149998393,267.71523149998393,267.731596199912,268.2202862999402,268.2006906999741,f,1,0.46717610000632703,None,,SA21,104,2025-04-01_12h33.49.629,416_EXPERIMENT_PSYCHOPY_AU2220019_AU2220225,2024.2.4,59.78526327097367,2025-04-01 12h40.35.429114 +0530,
surprise.jpg,s,114,0,19,f,0,0.5416466000024229,None,19,0,114,1,268.2202862999402,,,,,,,,,,,,,,,,268.21486069995444,268.2202862999402,269.71518699999433,269.71518699999433,269.73163159994874,270.21485569991637,270.2676398999756,f,0,0.5416466000024229,None,,SA21,104,2025-04-01_12h33.49.629,416_EXPERIMENT_PSYCHOPY_AU2220019_AU2220225,2024.2.4,59.78526327097367,2025-04-01 12h40.35.429114 +0530,
surprise_upper_blur.jpg,s,115,1,19,s,1,0.6487478000344709,None,19,1,115,4,270.28557940002065,,,,,,,,,,,,,,,,270.28040049993433,270.28557940002065,271.78184339997824,271.78184339997824,271.7981759000104,272.2812066000188,272.43433409999125,s,1,0.6487478000344709,None,,SA21,104,2025-04-01_12h33.49.629,416_EXPERIMENT_PSYCHOPY_AU2220019_AU2220225,2024.2.4,59.78526327097367,2025-04-01 12h40.35.429114 +0530,
surprise_lower_blur.jpg,s,116,2,19,f,0,0.6392508000135422,None,19,2,116,5,272.45269119995646,,,,,,,,,,,,,,,,272.4477247999748,272.45269119995646,273.94888359995093,273.94888359995093,273.9653284999076,274.46465829992667,274.6004066999303,f,0,0.6392508000135422,None,,SA21,104,2025-04-01_12h33.49.629,416_EXPERIMENT_PSYCHOPY_AU2220019_AU2220225,2024.2.4,59.78526327097367,2025-04-01 12h40.35.429114 +0530,
fear_lower_blur.jpg,f,117,3,19,f,1,0.6227099999086931,None,19,3,117,3,274.6207146999659,,,,,,,,,,,,,,,,274.6140490999678,274.6207146999659,276.11487199994735,276.11487199994735,276.13258619990665,276.6147934999317,276.74804909992963,f,1,0.6227099999086931,None,,SA21,104,2025-04-01_12h33.49.629,416_EXPERIMENT_PSYCHOPY_AU2220019_AU2220225,2024.2.4,59.78526327097367,2025-04-01 12h40.35.429114 +0530,
fear.jpg,f,118,4,19,f,1,0.5438902999740094,None,19,4,118,0,276.76696189993527,,,,,,,,,,,,,,,,276.7614638999803,276.76696189993527,278.24863119993825,278.24863119993825,278.2815542999888,278.7483671999071,278.797955899965,f,1,0.5438902999740094,None,,SA21,104,2025-04-01_12h33.49.629,416_EXPERIMENT_PSYCHOPY_AU2220019_AU2220225,2024.2.4,59.78526327097367,2025-04-01 12h40.35.429114 +0530,
fear_upper_blur.jpg,f,119,5,19,f,1,0.5711860000155866,None,19,5,119,2,278.8156184999971,,,,,,,,,,,,,,,,278.8102821999928,278.8156184999971,280.31316939997487,280.31316939997487,280.3296139999293,280.8148147999309,280.900381000014,f,1,0.5711860000155866,None,,SA21,104,2025-04-01_12h33.49.629,416_EXPERIMENT_PSYCHOPY_AU2220019_AU2220225,2024.2.4,59.78526327097367,2025-04-01 12h40.35.429114 +0530,
