stimulus_image,correct_response,thisN,thisTrialN,thisRepN,key_resp.keys,key_resp.corr,key_resp.rt,key_resp.duration,loop.thisRepN,loop.thisTrialN,loop.thisN,loop.thisIndex,thisRow.t,notes,guide.started,instructions.started,ins_resp.started,guide.stopped,ins_resp.keys,ins_resp.rt,ins_resp.duration,guide_2.started,text.started,key_resp_2.started,guide_2.stopped,key_resp_2.keys,key_resp_2.rt,key_resp_2.duration,trial.started,fixation.started,image.started,key_resp.started,fixation.stopped,image.stopped,trial.stopped,loop.key_resp.keys,loop.key_resp.corr,key_resp.stopped,loop.key_resp.rt,loop.key_resp.duration,participant,session,date,expName,psychopyVersion,frameRate,expStart,
,,,,,,,,,,,,,,,0.0035115000209771097,0.009270700043998659,0.009270700043998659,11.950593499990646,space,11.894069999980275,None,,,,,,,,,,,,,,,,,,,,Sah21,119,2025-04-08_01h59.02.946,416_EXPERIMENT_PSYCHOPY_AU2220019_AU2220225,2024.2.4,60.01586819760468,2025-04-08 01h59.25.087594 +0530,
,,,,,,,,,,,,,,,,,,,,,,11.950702800008003,11.958220200031064,11.958220200031064,34.34070190001512,space,22.37910219997866,None,,,,,,,,,,,,,Sah21,119,2025-04-08_01h59.02.946,416_EXPERIMENT_PSYCHOPY_AU2220019_AU2220225,2024.2.4,60.01586819760468,2025-04-08 01h59.25.087594 +0530,
fear_lower_blur.jpg,f,0,0,0,None,0,,,0,0,0,3,34.494299400015734,,,,,,,,,,,,,,,,34.48799620004138,34.494299400015734,35.86993980000261,35.86993980000261,36.004957300028764,36.37143150001066,36.6048654000042,None,0,,,,Sah21,119,2025-04-08_01h59.02.946,416_EXPERIMENT_PSYCHOPY_AU2220019_AU2220225,2024.2.4,60.01586819760468,2025-04-08 01h59.25.087594 +0530,
fear_upper_blur.jpg,f,1,1,0,None,0,,,0,1,1,2,36.64925240003504,,,,,,,,,,,,,,,,36.644320200022776,36.64925240003504,38.10468550003134,38.10468550003134,38.15474080003332,38.604336599993985,38.839253700047266,None,0,38.886105000041425,,,Sah21,119,2025-04-08_01h59.02.946,416_EXPERIMENT_PSYCHOPY_AU2220019_AU2220225,2024.2.4,60.01586819760468,2025-04-08 01h59.25.087594 +0530,
fear.jpg,f,2,2,0,f,1,0.5952680000336841,None,0,2,2,0,38.886105000041425,,,,,,,,,,,,,,,,38.88123739999719,38.886105000041425,40.35530840000138,40.35530840000138,40.3884015000076,40.85464160004631,40.956937100039795,f,1,,0.5952680000336841,None,Sah21,119,2025-04-08_01h59.02.946,416_EXPERIMENT_PSYCHOPY_AU2220019_AU2220225,2024.2.4,60.01586819760468,2025-04-08 01h59.25.087594 +0530,
surprise_upper_blur.jpg,s,3,3,0,s,1,0.6110757999704219,None,0,3,3,4,41.00269009999465,,,,,,,,,,,,,,,,40.99720939999679,41.00269009999465,42.4713400999899,42.4713400999899,42.50503290002234,42.9707303000032,43.09035740001127,s,1,,0.6110757999704219,None,Sah21,119,2025-04-08_01h59.02.946,416_EXPERIMENT_PSYCHOPY_AU2220019_AU2220225,2024.2.4,60.01586819760468,2025-04-08 01h59.25.087594 +0530,
surprise_lower_blur.jpg,s,4,4,0,s,1,0.6226817999850027,None,0,4,4,5,43.13547830004245,,,,,,,,,,,,,,,,43.12969970004633,43.13547830004245,44.60506390000228,44.60506390000228,44.638532700017095,45.10473429999547,45.239938600047026,s,1,,0.6226817999850027,None,Sah21,119,2025-04-08_01h59.02.946,416_EXPERIMENT_PSYCHOPY_AU2220019_AU2220225,2024.2.4,60.01586819760468,2025-04-08 01h59.25.087594 +0530,
surprise.jpg,s,5,5,0,s,1,0.512402500025928,None,0,5,5,1,45.28768750000745,,,,,,,,,,,,,,,,45.281745599990245,45.28768750000745,46.75483540003188,46.75483540003188,46.78839020000305,47.25413340004161,47.27352789998986,s,1,,0.512402500025928,None,Sah21,119,2025-04-08_01h59.02.946,416_EXPERIMENT_PSYCHOPY_AU2220019_AU2220225,2024.2.4,60.01586819760468,2025-04-08 01h59.25.087594 +0530,
fear_lower_blur.jpg,f,6,0,1,f,1,0.45889700000407174,None,1,0,6,3,47.29119780001929,,,,,,,,,,,,,,,,47.285923600022215,47.29119780001929,48.7883329000324,48.7883329000324,48.80458950001048,,49.257334600028116,f,1,,0.45889700000407174,None,Sah21,119,2025-04-08_01h59.02.946,416_EXPERIMENT_PSYCHOPY_AU2220019_AU2220225,2024.2.4,60.01586819760468,2025-04-08 01h59.25.087594 +0530,
surprise_upper_blur.jpg,s,7,1,1,s,1,0.70961169997463,None,1,1,7,4,49.27513810002711,,,,,,,,,,,,,,,,49.26992990000872,49.27513810002711,50.77182190003805,50.77182190003805,50.78859390004072,51.270805400039535,51.48988140001893,s,1,,0.70961169997463,None,Sah21,119,2025-04-08_01h59.02.946,416_EXPERIMENT_PSYCHOPY_AU2220019_AU2220225,2024.2.4,60.01586819760468,2025-04-08 01h59.25.087594 +0530,
surprise_lower_blur.jpg,s,8,2,1,f,0,0.5617783000343479,None,1,2,8,5,51.50723930000095,,,,,,,,,,,,,,,,51.502454600005876,51.50723930000095,53.00544259999879,53.00544259999879,53.02167849999387,53.504697300028056,53.573692000005394,f,0,,0.5617783000343479,None,Sah21,119,2025-04-08_01h59.02.946,416_EXPERIMENT_PSYCHOPY_AU2220019_AU2220225,2024.2.4,60.01586819760468,2025-04-08 01h59.25.087594 +0530,
fear_upper_blur.jpg,f,9,3,1,None,0,,,1,3,9,2,53.59362520003924,,,,,,,,,,,,,,,,53.586471100046765,53.59362520003924,55.08804030000465,55.08804030000465,55.10486020002281,55.587806200026534,55.822973800008185,None,0,55.84313719999045,,,Sah21,119,2025-04-08_01h59.02.946,416_EXPERIMENT_PSYCHOPY_AU2220019_AU2220225,2024.2.4,60.01586819760468,2025-04-08 01h59.25.087594 +0530,
surprise.jpg,s,10,4,1,s,1,0.6062256000004709,None,1,4,10,1,55.84313719999045,,,,,,,,,,,,,,,,55.83690160000697,55.84313719999045,57.337385900027584,57.337385900027584,57.35434580000583,57.83709169999929,57.95622729999013,s,1,,0.6062256000004709,None,Sah21,119,2025-04-08_01h59.02.946,416_EXPERIMENT_PSYCHOPY_AU2220019_AU2220225,2024.2.4,60.01586819760468,2025-04-08 01h59.25.087594 +0530,
fear.jpg,f,11,5,1,None,0,,,1,5,11,0,57.974722900020424,,,,,,,,,,,,,,,,57.969764600042254,57.974722900020424,59.471099200018216,59.471099200018216,59.48767240002053,59.97079490002943,60.20560400001705,None,0,60.222431700036395,,,Sah21,119,2025-04-08_01h59.02.946,416_EXPERIMENT_PSYCHOPY_AU2220019_AU2220225,2024.2.4,60.01586819760468,2025-04-08 01h59.25.087594 +0530,
surprise_upper_blur.jpg,s,12,0,2,s,1,0.6898630000068806,None,2,0,12,4,60.222431700036395,,,,,,,,,,,,,,,,60.21841640002094,60.222431700036395,61.72086100000888,61.72086100000888,61.737512000021525,62.22042100003455,62.423149900045246,s,1,,0.6898630000068806,None,Sah21,119,2025-04-08_01h59.02.946,416_EXPERIMENT_PSYCHOPY_AU2220019_AU2220225,2024.2.4,60.01586819760468,2025-04-08 01h59.25.087594 +0530,
surprise_lower_blur.jpg,s,13,1,2,s,1,0.6871894000214525,None,2,1,13,5,62.4402456000098,,,,,,,,,,,,,,,,62.435770600044634,62.4402456000098,63.937837600009516,63.937837600009516,63.95396030001575,64.43723929999396,64.63970699999481,s,1,,0.6871894000214525,None,Sah21,119,2025-04-08_01h59.02.946,416_EXPERIMENT_PSYCHOPY_AU2220019_AU2220225,2024.2.4,60.01586819760468,2025-04-08 01h59.25.087594 +0530,
surprise.jpg,s,14,2,2,s,1,0.6674695999827236,None,2,2,14,1,64.65698950004298,,,,,,,,,,,,,,,,64.65240260004066,64.65698950004298,66.15406800003257,66.15406800003257,66.17081430001417,66.65421090001473,66.82504860003246,s,1,,0.6674695999827236,None,Sah21,119,2025-04-08_01h59.02.946,416_EXPERIMENT_PSYCHOPY_AU2220019_AU2220225,2024.2.4,60.01586819760468,2025-04-08 01h59.25.087594 +0530,
fear_upper_blur.jpg,f,15,3,2,None,0,,,2,3,15,2,66.84227970003849,,,,,,,,,,,,,,,,66.83785920002265,66.84227970003849,68.33743469999172,68.33743469999172,68.3546190999914,68.83669860003283,69.07259220001288,None,0,69.09084880002774,,,Sah21,119,2025-04-08_01h59.02.946,416_EXPERIMENT_PSYCHOPY_AU2220019_AU2220225,2024.2.4,60.01586819760468,2025-04-08 01h59.25.087594 +0530,
fear_lower_blur.jpg,f,16,4,2,s,0,0.6517126000253484,None,2,4,16,3,69.09084880002774,,,,,,,,,,,,,,,,69.08566450001672,69.09084880002774,70.58780690003186,70.58780690003186,70.60435060004238,71.08691200002795,71.25563200004399,s,0,,0.6517126000253484,None,Sah21,119,2025-04-08_01h59.02.946,416_EXPERIMENT_PSYCHOPY_AU2220019_AU2220225,2024.2.4,60.01586819760468,2025-04-08 01h59.25.087594 +0530,
fear.jpg,f,17,5,2,None,0,,,2,5,17,0,71.27356810000492,,,,,,,,,,,,,,,,71.26871450000908,71.27356810000492,72.77096260001417,72.77096260001417,72.78747540002223,73.27014000003692,73.5050976999919,None,0,73.52215279999655,,,Sah21,119,2025-04-08_01h59.02.946,416_EXPERIMENT_PSYCHOPY_AU2220019_AU2220225,2024.2.4,60.01586819760468,2025-04-08 01h59.25.087594 +0530,
surprise.jpg,s,18,0,3,s,1,0.5995828000013717,None,3,0,18,1,73.52215279999655,,,,,,,,,,,,,,,,73.51788769999985,73.52215279999655,75.02128650003579,75.02128650003579,75.03743349999422,75.52039580000564,75.62373779999325,s,1,,0.5995828000013717,None,Sah21,119,2025-04-08_01h59.02.946,416_EXPERIMENT_PSYCHOPY_AU2220019_AU2220225,2024.2.4,60.01586819760468,2025-04-08 01h59.25.087594 +0530,
fear_upper_blur.jpg,f,19,1,3,f,1,0.6492625999962911,None,3,1,19,2,75.64139130001422,,,,,,,,,,,,,,,,75.63647369999671,75.64139130001422,77.13769400003366,77.13769400003366,77.15429700003006,77.63710940000601,77.79016140004387,f,1,,0.6492625999962911,None,Sah21,119,2025-04-08_01h59.02.946,416_EXPERIMENT_PSYCHOPY_AU2220019_AU2220225,2024.2.4,60.01586819760468,2025-04-08 01h59.25.087594 +0530,
fear.jpg,f,20,2,3,s,0,0.506242600036785,None,3,2,20,0,77.80782710004132,,,,,,,,,,,,,,,,77.80330660002073,77.80782710004132,79.30442090000724,79.30442090000724,79.32108080002945,79.80384180002147,79.82242969999788,s,0,,0.506242600036785,None,Sah21,119,2025-04-08_01h59.02.946,416_EXPERIMENT_PSYCHOPY_AU2220019_AU2220225,2024.2.4,60.01586819760468,2025-04-08 01h59.25.087594 +0530,
surprise_lower_blur.jpg,s,21,3,3,s,1,0.5920099000213668,None,3,3,21,5,79.83969560003607,,,,,,,,,,,,,,,,79.83461130002979,79.83969560003607,81.33794430003036,81.33794430003036,81.354251700046,81.8371754999971,81.93937080004252,s,1,,0.5920099000213668,None,Sah21,119,2025-04-08_01h59.02.946,416_EXPERIMENT_PSYCHOPY_AU2220019_AU2220225,2024.2.4,60.01586819760468,2025-04-08 01h59.25.087594 +0530,
surprise_upper_blur.jpg,s,22,4,3,s,1,0.5597805000143126,None,3,4,22,4,81.95621500001289,,,,,,,,,,,,,,,,81.95170090004103,81.95621500001289,83.45416500000283,83.45416500000283,83.47056190000148,83.95400170003995,84.02290929999435,s,1,,0.5597805000143126,None,Sah21,119,2025-04-08_01h59.02.946,416_EXPERIMENT_PSYCHOPY_AU2220019_AU2220225,2024.2.4,60.01586819760468,2025-04-08 01h59.25.087594 +0530,
fear_lower_blur.jpg,f,23,5,3,f,1,0.5819934000028297,None,3,5,23,3,84.039972700004,,,,,,,,,,,,,,,,84.0355195000302,84.039972700004,85.5375055000186,85.5375055000186,85.55432510003448,86.03738420002628,86.12272640003357,f,1,,0.5819934000028297,None,Sah21,119,2025-04-08_01h59.02.946,416_EXPERIMENT_PSYCHOPY_AU2220019_AU2220225,2024.2.4,60.01586819760468,2025-04-08 01h59.25.087594 +0530,
surprise_upper_blur.jpg,s,24,0,4,s,1,0.6947954000206664,None,4,0,24,4,86.13945390004665,,,,,,,,,,,,,,,,86.1351025000331,86.13945390004665,87.63744300004328,87.63744300004328,87.65423360001296,88.137274000037,88.33955620002234,s,1,,0.6947954000206664,None,Sah21,119,2025-04-08_01h59.02.946,416_EXPERIMENT_PSYCHOPY_AU2220019_AU2220225,2024.2.4,60.01586819760468,2025-04-08 01h59.25.087594 +0530,
surprise_lower_blur.jpg,s,25,1,4,None,0,,,4,1,25,5,88.35675929998979,,,,,,,,,,,,,,,,88.35204740002519,88.35675929998979,89.85395660001086,89.85395660001086,89.87078910000855,90.35357880004449,90.58880790002877,None,0,90.60530380002456,,,Sah21,119,2025-04-08_01h59.02.946,416_EXPERIMENT_PSYCHOPY_AU2220019_AU2220225,2024.2.4,60.01586819760468,2025-04-08 01h59.25.087594 +0530,
fear_upper_blur.jpg,f,26,2,4,f,1,0.5216744999634102,None,4,2,26,2,90.60530380002456,,,,,,,,,,,,,,,,90.60108789999504,90.60530380002456,92.104364000028,92.104364000028,92.104364000028,92.60406550002517,92.63934910000535,f,1,,0.5216744999634102,None,Sah21,119,2025-04-08_01h59.02.946,416_EXPERIMENT_PSYCHOPY_AU2220019_AU2220225,2024.2.4,60.01586819760468,2025-04-08 01h59.25.087594 +0530,
surprise.jpg,s,27,3,4,s,1,0.7095336999627762,None,4,3,27,1,92.65827120002359,,,,,,,,,,,,,,,,92.65253349998966,92.65827120002359,94.15418430004502,94.15418430004502,94.17095210001571,94.65368560003117,94.87313170003472,s,1,,0.7095336999627762,None,Sah21,119,2025-04-08_01h59.02.946,416_EXPERIMENT_PSYCHOPY_AU2220019_AU2220225,2024.2.4,60.01586819760468,2025-04-08 01h59.25.087594 +0530,
fear.jpg,f,28,4,4,f,1,0.5838508000015281,None,4,4,28,0,94.89126530004432,,,,,,,,,,,,,,,,94.88644130004104,94.89126530004432,96.38778610003646,96.38778610003646,96.40434870001627,96.88746070000343,96.98962470004335,f,1,,0.5838508000015281,None,Sah21,119,2025-04-08_01h59.02.946,416_EXPERIMENT_PSYCHOPY_AU2220019_AU2220225,2024.2.4,60.01586819760468,2025-04-08 01h59.25.087594 +0530,
fear_lower_blur.jpg,f,29,5,4,s,0,0.6892041999963112,None,4,5,29,3,97.00664880004479,,,,,,,,,,,,,,,,97.00201200001175,97.00664880004479,98.5043721999973,98.5043721999973,98.52092129999073,99.00418590003392,99.20599470002344,s,0,,0.6892041999963112,None,Sah21,119,2025-04-08_01h59.02.946,416_EXPERIMENT_PSYCHOPY_AU2220019_AU2220225,2024.2.4,60.01586819760468,2025-04-08 01h59.25.087594 +0530,
surprise.jpg,s,30,0,5,s,1,0.6320575000136159,None,5,0,30,1,99.2243711000192,,,,,,,,,,,,,,,,99.21937010000693,99.2243711000192,100.72087790002115,100.72087790002115,100.73736710002413,101.22064170002704,101.35654260002775,s,1,,0.6320575000136159,None,Sah21,119,2025-04-08_01h59.02.946,416_EXPERIMENT_PSYCHOPY_AU2220019_AU2220225,2024.2.4,60.01586819760468,2025-04-08 01h59.25.087594 +0530,
surprise_upper_blur.jpg,s,31,1,5,f,0,0.3956923999940045,None,5,1,31,4,101.37481480004499,,,,,,,,,,,,,,,,101.36948700004723,101.37481480004499,102.87143170001218,102.87143170001218,102.88744660001248,,103.2729353000177,f,0,,0.3956923999940045,None,Sah21,119,2025-04-08_01h59.02.946,416_EXPERIMENT_PSYCHOPY_AU2220019_AU2220225,2024.2.4,60.01586819760468,2025-04-08 01h59.25.087594 +0530,
surprise_lower_blur.jpg,s,32,2,5,None,0,,,5,2,32,5,103.28970920003485,,,,,,,,,,,,,,,,103.28493160003563,103.28970920003485,104.78732629999286,104.78732629999286,104.80410549999215,105.28686809999635,105.52219789999072,None,0,105.53869310003938,,,Sah21,119,2025-04-08_01h59.02.946,416_EXPERIMENT_PSYCHOPY_AU2220019_AU2220225,2024.2.4,60.01586819760468,2025-04-08 01h59.25.087594 +0530,
fear.jpg,f,33,3,5,None,0,,,5,3,33,0,105.53869310003938,,,,,,,,,,,,,,,,105.5349722999963,105.53869310003938,107.03781460004393,107.03781460004393,107.05439900001511,107.53733910003211,107.77185840002494,None,0,107.78907990001608,,,Sah21,119,2025-04-08_01h59.02.946,416_EXPERIMENT_PSYCHOPY_AU2220019_AU2220225,2024.2.4,60.01586819760468,2025-04-08 01h59.25.087594 +0530,
fear_lower_blur.jpg,f,34,4,5,None,0,,,5,4,34,3,107.78907990001608,,,,,,,,,,,,,,,,107.78453890001401,107.78907990001608,109.28787490003742,109.28787490003742,109.30407010001363,109.78759950003587,110.02197320002597,None,0,110.0385259000468,,,Sah21,119,2025-04-08_01h59.02.946,416_EXPERIMENT_PSYCHOPY_AU2220019_AU2220225,2024.2.4,60.01586819760468,2025-04-08 01h59.25.087594 +0530,
fear_upper_blur.jpg,f,35,5,5,None,0,,,5,5,35,2,110.0385259000468,,,,,,,,,,,,,,,,110.03464660001919,110.0385259000468,111.53739350003889,111.53739350003889,111.55460360000143,112.03720100002829,112.27047200000379,None,0,112.2871870000381,,,Sah21,119,2025-04-08_01h59.02.946,416_EXPERIMENT_PSYCHOPY_AU2220019_AU2220225,2024.2.4,60.01586819760468,2025-04-08 01h59.25.087594 +0530,
fear_upper_blur.jpg,f,36,0,6,f,1,0.5744721000082791,None,6,0,36,2,112.2871870000381,,,,,,,,,,,,,,,,112.28295000002254,112.2871870000381,113.78784240002278,113.78784240002278,113.78784240002278,114.28693609999027,114.37184810003964,f,1,,0.5744721000082791,None,Sah21,119,2025-04-08_01h59.02.946,416_EXPERIMENT_PSYCHOPY_AU2220019_AU2220225,2024.2.4,60.01586819760468,2025-04-08 01h59.25.087594 +0530,
fear_lower_blur.jpg,f,37,1,6,f,1,0.5077953999862075,None,6,1,37,3,114.389856600028,,,,,,,,,,,,,,,,114.384639099997,114.389856600028,115.88789740001084,115.88789740001084,115.90455929999007,116.386915900046,116.40600390004693,f,1,,0.5077953999862075,None,Sah21,119,2025-04-08_01h59.02.946,416_EXPERIMENT_PSYCHOPY_AU2220019_AU2220225,2024.2.4,60.01586819760468,2025-04-08 01h59.25.087594 +0530,
surprise.jpg,s,38,2,6,s,1,0.5743366000242531,None,6,2,38,1,116.42367170000216,,,,,,,,,,,,,,,,116.41921070002718,116.42367170000216,117.92091390001588,117.92091390001588,117.93802709999727,118.42065030004596,118.50675850000698,s,1,,0.5743366000242531,None,Sah21,119,2025-04-08_01h59.02.946,416_EXPERIMENT_PSYCHOPY_AU2220019_AU2220225,2024.2.4,60.01586819760468,2025-04-08 01h59.25.087594 +0530,
surprise_lower_blur.jpg,s,39,3,6,s,1,0.6953194999950938,None,6,3,39,5,118.5250173000386,,,,,,,,,,,,,,,,118.51975410000887,118.5250173000386,120.02083130000392,120.02083130000392,120.03748630004702,120.52043160004541,120.72298140003113,s,1,,0.6953194999950938,None,Sah21,119,2025-04-08_01h59.02.946,416_EXPERIMENT_PSYCHOPY_AU2220019_AU2220225,2024.2.4,60.01586819760468,2025-04-08 01h59.25.087594 +0530,
fear.jpg,f,40,4,6,f,1,0.5030210000113584,None,6,4,40,0,120.74183010001434,,,,,,,,,,,,,,,,120.73675020004157,120.74183010001434,122.2379065999994,122.2379065999994,122.25458190002246,122.73684460000368,122.75642819999484,f,1,,0.5030210000113584,None,Sah21,119,2025-04-08_01h59.02.946,416_EXPERIMENT_PSYCHOPY_AU2220019_AU2220225,2024.2.4,60.01586819760468,2025-04-08 01h59.25.087594 +0530,
surprise_upper_blur.jpg,s,41,5,6,None,0,,,6,5,41,4,122.77404330001445,,,,,,,,,,,,,,,,122.76897660002578,122.77404330001445,124.27091429999564,124.27091429999564,124.28739800001495,124.77048200002173,125.00524420000147,None,0,125.02176050003618,,,Sah21,119,2025-04-08_01h59.02.946,416_EXPERIMENT_PSYCHOPY_AU2220019_AU2220225,2024.2.4,60.01586819760468,2025-04-08 01h59.25.087594 +0530,
surprise_upper_blur.jpg,s,42,0,7,s,1,0.5653345000464469,None,7,0,42,4,125.02176050003618,,,,,,,,,,,,,,,,125.01749729999574,125.02176050003618,126.52053650002927,126.52053650002927,126.53693310002564,127.02104570000665,127.08994580002036,s,1,,0.5653345000464469,None,Sah21,119,2025-04-08_01h59.02.946,416_EXPERIMENT_PSYCHOPY_AU2220019_AU2220225,2024.2.4,60.01586819760468,2025-04-08 01h59.25.087594 +0530,
fear_upper_blur.jpg,f,43,1,7,None,0,,,7,1,43,2,127.10750270000426,,,,,,,,,,,,,,,,127.10234089998994,127.10750270000426,128.60410360002425,128.60410360002425,128.62101830000756,129.10340870002983,129.33836130000418,None,0,129.35539380001137,,,Sah21,119,2025-04-08_01h59.02.946,416_EXPERIMENT_PSYCHOPY_AU2220019_AU2220225,2024.2.4,60.01586819760468,2025-04-08 01h59.25.087594 +0530,
surprise_lower_blur.jpg,s,44,2,7,None,0,,,7,2,44,5,129.35539380001137,,,,,,,,,,,,,,,,129.35107760003302,129.35539380001137,130.85468550003134,130.85468550003134,130.87076449999586,131.35413540003356,131.6041225999943,None,0,,,,Sah21,119,2025-04-08_01h59.02.946,416_EXPERIMENT_PSYCHOPY_AU2220019_AU2220225,2024.2.4,60.01586819760468,2025-04-08 01h59.25.087594 +0530,
fear.jpg,f,45,3,7,None,0,,,7,3,45,0,131.62055490002967,,,,,,,,,,,,,,,,131.61615990003338,131.62055490002967,133.1044044000446,133.1044044000446,133.12096190004377,133.60385519999545,133.8389364000177,None,0,133.8561250999919,,,Sah21,119,2025-04-08_01h59.02.946,416_EXPERIMENT_PSYCHOPY_AU2220019_AU2220225,2024.2.4,60.01586819760468,2025-04-08 01h59.25.087594 +0530,
surprise.jpg,s,46,4,7,None,0,,,7,4,46,1,133.8561250999919,,,,,,,,,,,,,,,,133.8518401000183,133.8561250999919,135.35465550003573,135.35465550003573,135.37124659999972,135.85365190001903,136.08871740003815,None,0,136.10554590000538,,,Sah21,119,2025-04-08_01h59.02.946,416_EXPERIMENT_PSYCHOPY_AU2220019_AU2220225,2024.2.4,60.01586819760468,2025-04-08 01h59.25.087594 +0530,
fear_lower_blur.jpg,f,47,5,7,None,0,,,7,5,47,3,136.10554590000538,,,,,,,,,,,,,,,,136.10089480003808,136.10554590000538,137.60419410001487,137.60419410001487,137.62123310001334,138.10379110003123,138.33856510004262,None,0,138.35574289999204,,,Sah21,119,2025-04-08_01h59.02.946,416_EXPERIMENT_PSYCHOPY_AU2220019_AU2220225,2024.2.4,60.01586819760468,2025-04-08 01h59.25.087594 +0530,
fear.jpg,f,48,0,8,None,0,,,8,0,48,0,138.35574289999204,,,,,,,,,,,,,,,,138.35143270000117,138.35574289999204,139.8543174000224,139.8543174000224,139.8708141000243,140.35370570002124,140.58882210002048,None,0,140.60480660002213,,,Sah21,119,2025-04-08_01h59.02.946,416_EXPERIMENT_PSYCHOPY_AU2220019_AU2220225,2024.2.4,60.01586819760468,2025-04-08 01h59.25.087594 +0530,
surprise_upper_blur.jpg,s,49,1,8,s,1,0.5058323999983259,None,8,1,49,4,140.60480660002213,,,,,,,,,,,,,,,,140.60090800002217,140.60480660002213,142.10464020003565,142.10464020003565,142.10464020003565,142.60403650003718,142.6229888999951,s,1,,0.5058323999983259,None,Sah21,119,2025-04-08_01h59.02.946,416_EXPERIMENT_PSYCHOPY_AU2220019_AU2220225,2024.2.4,60.01586819760468,2025-04-08 01h59.25.087594 +0530,
surprise_lower_blur.jpg,s,50,2,8,None,0,,,8,2,50,5,142.6400136000011,,,,,,,,,,,,,,,,142.63519010000164,142.6400136000011,144.1375231000129,144.1375231000129,144.15443640004378,144.63772689999314,144.87200660002418,None,0,144.88885879999725,,,Sah21,119,2025-04-08_01h59.02.946,416_EXPERIMENT_PSYCHOPY_AU2220019_AU2220225,2024.2.4,60.01586819760468,2025-04-08 01h59.25.087594 +0530,
fear_lower_blur.jpg,f,51,3,8,None,0,,,8,3,51,3,144.88885879999725,,,,,,,,,,,,,,,,144.8846470999997,144.88885879999725,146.38857440004358,146.38857440004358,146.40571670001373,146.88804900000105,147.12261280004168,None,0,147.1392099999939,,,Sah21,119,2025-04-08_01h59.02.946,416_EXPERIMENT_PSYCHOPY_AU2220019_AU2220225,2024.2.4,60.01586819760468,2025-04-08 01h59.25.087594 +0530,
fear_upper_blur.jpg,f,52,4,8,f,1,0.6631450999993831,None,8,4,52,2,147.1392099999939,,,,,,,,,,,,,,,,147.13476260000607,147.1392099999939,148.63876200001687,148.63876200001687,148.65485530003207,149.13752560003195,149.3070823000162,f,1,,0.6631450999993831,None,Sah21,119,2025-04-08_01h59.02.946,416_EXPERIMENT_PSYCHOPY_AU2220019_AU2220225,2024.2.4,60.01586819760468,2025-04-08 01h59.25.087594 +0530,
surprise.jpg,s,53,5,8,s,1,0.5075821000500582,None,8,5,53,1,149.3252829000121,,,,,,,,,,,,,,,,149.32029280002462,149.3252829000121,150.8211060000467,150.8211060000467,150.838438900013,151.3213249000255,151.3401837000274,s,1,,0.5075821000500582,None,Sah21,119,2025-04-08_01h59.02.946,416_EXPERIMENT_PSYCHOPY_AU2220019_AU2220225,2024.2.4,60.01586819760468,2025-04-08 01h59.25.087594 +0530,
fear_upper_blur.jpg,f,54,0,9,f,1,0.6943551999866031,None,9,0,54,2,151.3580330000259,,,,,,,,,,,,,,,,151.35272560000885,151.3580330000259,152.85482960002264,152.85482960002264,152.87099950003903,153.35419640003238,153.55510320002213,f,1,,0.6943551999866031,None,Sah21,119,2025-04-08_01h59.02.946,416_EXPERIMENT_PSYCHOPY_AU2220019_AU2220225,2024.2.4,60.01586819760468,2025-04-08 01h59.25.087594 +0530,
surprise.jpg,s,55,1,9,s,1,0.5153147000237368,None,9,1,55,1,153.57058530003997,,,,,,,,,,,,,,,,153.56597970001167,153.57058530003997,155.05516490002628,155.05516490002628,155.0717614000314,155.5546386000351,155.5739986000117,s,1,,0.5153147000237368,None,Sah21,119,2025-04-08_01h59.02.946,416_EXPERIMENT_PSYCHOPY_AU2220019_AU2220225,2024.2.4,60.01586819760468,2025-04-08 01h59.25.087594 +0530,
fear_lower_blur.jpg,f,56,2,9,f,1,0.6476391999749467,None,9,2,56,3,155.59199420001823,,,,,,,,,,,,,,,,155.58681110001635,155.59199420001823,157.08853910001926,157.08853910001926,157.10516880004434,157.58722119999584,157.74050670000724,f,1,,0.6476391999749467,None,Sah21,119,2025-04-08_01h59.02.946,416_EXPERIMENT_PSYCHOPY_AU2220019_AU2220225,2024.2.4,60.01586819760468,2025-04-08 01h59.25.087594 +0530,
surprise_upper_blur.jpg,s,57,3,9,s,1,0.4431563999969512,None,9,3,57,4,157.75879500003066,,,,,,,,,,,,,,,,157.7534627999994,157.75879500003066,159.25498160003917,159.25498160003917,159.2717377000372,,159.7061420000391,s,1,,0.4431563999969512,None,Sah21,119,2025-04-08_01h59.02.946,416_EXPERIMENT_PSYCHOPY_AU2220019_AU2220225,2024.2.4,60.01586819760468,2025-04-08 01h59.25.087594 +0530,
fear.jpg,f,58,4,9,None,0,,,9,4,58,0,159.72393690003082,,,,,,,,,,,,,,,,159.71906740003033,159.72393690003082,161.2215311000473,161.2215311000473,161.23841210000683,161.72139409999363,161.95500499999616,None,0,161.97137590002967,,,Sah21,119,2025-04-08_01h59.02.946,416_EXPERIMENT_PSYCHOPY_AU2220019_AU2220225,2024.2.4,60.01586819760468,2025-04-08 01h59.25.087594 +0530,
surprise_lower_blur.jpg,s,59,5,9,s,1,0.617117700050585,None,9,5,59,5,161.97137590002967,,,,,,,,,,,,,,,,161.96716440003365,161.97137590002967,163.4715409000055,163.4715409000055,163.4715409000055,163.97089660004713,164.09219130000565,s,1,,0.617117700050585,None,Sah21,119,2025-04-08_01h59.02.946,416_EXPERIMENT_PSYCHOPY_AU2220019_AU2220225,2024.2.4,60.01586819760468,2025-04-08 01h59.25.087594 +0530,
surprise_lower_blur.jpg,s,60,0,10,s,1,0.5395871000364423,None,10,0,60,5,164.10938000003807,,,,,,,,,,,,,,,,164.10446140001295,164.10938000003807,165.60512970003765,165.60512970003765,165.62150240002666,166.10459360003006,166.15636960003758,s,1,,0.5395871000364423,None,Sah21,119,2025-04-08_01h59.02.946,416_EXPERIMENT_PSYCHOPY_AU2220019_AU2220225,2024.2.4,60.01586819760468,2025-04-08 01h59.25.087594 +0530,
fear_upper_blur.jpg,f,61,1,10,f,1,0.7094634000095539,None,10,1,61,2,166.17416360002244,,,,,,,,,,,,,,,,166.16904410003917,166.17416360002244,167.67142440000316,167.67142440000316,167.6884868000052,168.17140460002702,168.3903430000064,f,1,,0.7094634000095539,None,Sah21,119,2025-04-08_01h59.02.946,416_EXPERIMENT_PSYCHOPY_AU2220019_AU2220225,2024.2.4,60.01586819760468,2025-04-08 01h59.25.087594 +0530,
fear.jpg,f,62,2,10,f,1,0.6192455000127666,None,10,2,62,0,168.4093493000255,,,,,,,,,,,,,,,,168.4036189999897,168.4093493000255,169.90388150000945,169.90388150000945,169.92096320004202,170.40426500001922,170.53900099999737,f,1,,0.6192455000127666,None,Sah21,119,2025-04-08_01h59.02.946,416_EXPERIMENT_PSYCHOPY_AU2220019_AU2220225,2024.2.4,60.01586819760468,2025-04-08 01h59.25.087594 +0530,
fear_lower_blur.jpg,f,63,3,10,None,0,,,10,3,63,3,170.55713500001002,,,,,,,,,,,,,,,,170.55187399999704,170.55713500001002,172.05525660002604,172.05525660002604,172.07164050004212,172.554916699999,172.78951730002882,None,0,172.8070330999908,,,Sah21,119,2025-04-08_01h59.02.946,416_EXPERIMENT_PSYCHOPY_AU2220019_AU2220225,2024.2.4,60.01586819760468,2025-04-08 01h59.25.087594 +0530,
surprise_upper_blur.jpg,s,64,4,10,None,0,,,10,4,64,4,172.8070330999908,,,,,,,,,,,,,,,,172.8023543000454,172.8070330999908,174.3055672000046,174.3055672000046,174.32164939999348,174.80461960000684,175.05527420004364,None,0,,,,Sah21,119,2025-04-08_01h59.02.946,416_EXPERIMENT_PSYCHOPY_AU2220019_AU2220225,2024.2.4,60.01586819760468,2025-04-08 01h59.25.087594 +0530,
surprise.jpg,s,65,5,10,None,0,,,10,5,65,1,175.07384250004543,,,,,,,,,,,,,,,,175.06877940002596,175.07384250004543,176.55456030002097,176.55456030002097,176.58785090001766,177.0539561000187,177.28864740004065,None,0,177.30563300003996,,,Sah21,119,2025-04-08_01h59.02.946,416_EXPERIMENT_PSYCHOPY_AU2220019_AU2220225,2024.2.4,60.01586819760468,2025-04-08 01h59.25.087594 +0530,
fear_upper_blur.jpg,f,66,0,11,f,1,0.6618003000039607,None,11,0,66,2,177.30563300003996,,,,,,,,,,,,,,,,177.30130250001093,177.30563300003996,178.80438760004472,178.80438760004472,178.82078490004642,179.30403380002826,179.47241799999028,f,1,,0.6618003000039607,None,Sah21,119,2025-04-08_01h59.02.946,416_EXPERIMENT_PSYCHOPY_AU2220019_AU2220225,2024.2.4,60.01586819760468,2025-04-08 01h59.25.087594 +0530,
fear_lower_blur.jpg,f,67,1,11,None,0,,,11,1,67,3,179.4898067000322,,,,,,,,,,,,,,,,179.48461980000138,179.4898067000322,180.9877405000152,180.9877405000152,181.00463209999725,181.4873698000447,181.7218009000062,None,0,181.73942240001634,,,Sah21,119,2025-04-08_01h59.02.946,416_EXPERIMENT_PSYCHOPY_AU2220019_AU2220225,2024.2.4,60.01586819760468,2025-04-08 01h59.25.087594 +0530,
surprise.jpg,s,68,2,11,None,0,,,11,2,68,1,181.73942240001634,,,,,,,,,,,,,,,,181.7352715000161,181.73942240001634,183.2378479000181,183.2378479000181,183.25435970001854,183.73729830002412,183.97208620002493,None,0,183.98878640000476,,,Sah21,119,2025-04-08_01h59.02.946,416_EXPERIMENT_PSYCHOPY_AU2220019_AU2220225,2024.2.4,60.01586819760468,2025-04-08 01h59.25.087594 +0530,
surprise_upper_blur.jpg,s,69,3,11,None,0,,,11,3,69,4,183.98878640000476,,,,,,,,,,,,,,,,183.98465460003354,183.98878640000476,185.4878219999955,185.4878219999955,185.50419710000278,185.98717790003866,186.2218943000189,None,0,186.23923609999474,,,Sah21,119,2025-04-08_01h59.02.946,416_EXPERIMENT_PSYCHOPY_AU2220019_AU2220225,2024.2.4,60.01586819760468,2025-04-08 01h59.25.087594 +0530,
fear.jpg,f,70,4,11,None,0,,,11,4,70,0,186.23923609999474,,,,,,,,,,,,,,,,186.234983500035,186.23923609999474,187.7376106000156,187.7376106000156,187.7541196999955,188.2369646000443,188.47246499999892,None,0,188.48886240000138,,,Sah21,119,2025-04-08_01h59.02.946,416_EXPERIMENT_PSYCHOPY_AU2220019_AU2220225,2024.2.4,60.01586819760468,2025-04-08 01h59.25.087594 +0530,
surprise_lower_blur.jpg,s,71,5,11,None,0,,,11,5,71,5,188.48886240000138,,,,,,,,,,,,,,,,188.48505120002665,188.48886240000138,189.98707410000497,189.98707410000497,190.00386170001002,190.48730700003216,190.7223018000368,None,0,190.7397811000119,,,Sah21,119,2025-04-08_01h59.02.946,416_EXPERIMENT_PSYCHOPY_AU2220019_AU2220225,2024.2.4,60.01586819760468,2025-04-08 01h59.25.087594 +0530,
fear_lower_blur.jpg,f,72,0,12,None,0,,,12,0,72,3,190.7397811000119,,,,,,,,,,,,,,,,190.73465900000883,190.7397811000119,192.23764549999032,192.23764549999032,192.25440440000966,192.73680190002779,192.98686130001443,None,0,,,,Sah21,119,2025-04-08_01h59.02.946,416_EXPERIMENT_PSYCHOPY_AU2220019_AU2220225,2024.2.4,60.01586819760468,2025-04-08 01h59.25.087594 +0530,
surprise_lower_blur.jpg,s,73,1,12,None,0,,,12,1,73,5,193.0035840999917,,,,,,,,,,,,,,,,192.99865379999392,193.0035840999917,194.48764260002645,194.48764260002645,194.5042500999989,194.98726409999654,195.22263690002728,None,0,195.23919530003332,,,Sah21,119,2025-04-08_01h59.02.946,416_EXPERIMENT_PSYCHOPY_AU2220019_AU2220225,2024.2.4,60.01586819760468,2025-04-08 01h59.25.087594 +0530,
surprise_upper_blur.jpg,s,74,2,12,None,0,,,12,2,74,4,195.23919530003332,,,,,,,,,,,,,,,,195.23509390000254,195.23919530003332,196.73746199999005,196.73746199999005,196.75416040001437,197.23717810004018,197.47176800004672,None,0,197.489336300001,,,Sah21,119,2025-04-08_01h59.02.946,416_EXPERIMENT_PSYCHOPY_AU2220019_AU2220225,2024.2.4,60.01586819760468,2025-04-08 01h59.25.087594 +0530,
fear.jpg,f,75,3,12,f,1,0.5083839999861084,None,12,3,75,0,197.489336300001,,,,,,,,,,,,,,,,197.48526250000577,197.489336300001,198.98756570002297,198.98756570002297,199.00448250002228,199.487016100029,199.50621419999516,f,1,,0.5083839999861084,None,Sah21,119,2025-04-08_01h59.02.946,416_EXPERIMENT_PSYCHOPY_AU2220019_AU2220225,2024.2.4,60.01586819760468,2025-04-08 01h59.25.087594 +0530,
surprise.jpg,s,76,4,12,s,1,0.5119738000212237,None,12,4,76,1,199.52405310003087,,,,,,,,,,,,,,,,199.51942900003633,199.52405310003087,201.02157320000697,201.02157320000697,201.03757190000033,201.520357100002,201.5390630000038,s,1,,0.5119738000212237,None,Sah21,119,2025-04-08_01h59.02.946,416_EXPERIMENT_PSYCHOPY_AU2220019_AU2220225,2024.2.4,60.01586819760468,2025-04-08 01h59.25.087594 +0530,
fear_upper_blur.jpg,f,77,5,12,f,1,0.4901609999942593,None,12,5,77,2,201.55563320004148,,,,,,,,,,,,,,,,201.55117410002276,201.55563320004148,203.05454380001174,203.05454380001174,203.07065000000875,203.5539266000269,203.5561379000428,f,1,,0.4901609999942593,None,Sah21,119,2025-04-08_01h59.02.946,416_EXPERIMENT_PSYCHOPY_AU2220019_AU2220225,2024.2.4,60.01586819760468,2025-04-08 01h59.25.087594 +0530,
surprise.jpg,s,78,0,13,s,1,0.6528252999996766,None,13,0,78,1,203.57490320003126,,,,,,,,,,,,,,,,203.57033160002902,203.57490320003126,205.07122420001542,205.07122420001542,205.08784490003018,205.57018889999017,205.73943790001795,s,1,,0.6528252999996766,None,Sah21,119,2025-04-08_01h59.02.946,416_EXPERIMENT_PSYCHOPY_AU2220019_AU2220225,2024.2.4,60.01586819760468,2025-04-08 01h59.25.087594 +0530,
surprise_lower_blur.jpg,s,79,1,13,s,1,0.5666987000149675,None,13,1,79,5,205.7575587000465,,,,,,,,,,,,,,,,205.75267870002426,205.7575587000465,207.25468050001655,207.25468050001655,207.2708808000316,207.75365940004122,207.83969400002388,s,1,,0.5666987000149675,None,Sah21,119,2025-04-08_01h59.02.946,416_EXPERIMENT_PSYCHOPY_AU2220019_AU2220225,2024.2.4,60.01586819760468,2025-04-08 01h59.25.087594 +0530,
fear_lower_blur.jpg,f,80,2,13,f,1,0.6314440999994986,None,13,2,80,3,207.85654950002208,,,,,,,,,,,,,,,,207.85243150003953,207.85654950002208,209.35439690004569,209.35439690004569,209.37118550000014,209.8540437000338,209.98974009999074,f,1,,0.6314440999994986,None,Sah21,119,2025-04-08_01h59.02.946,416_EXPERIMENT_PSYCHOPY_AU2220019_AU2220225,2024.2.4,60.01586819760468,2025-04-08 01h59.25.087594 +0530,
fear_upper_blur.jpg,f,81,3,13,s,0,0.49747850000858307,None,13,3,81,2,210.00713790004374,,,,,,,,,,,,,,,,210.00226959999418,210.00713790004374,211.50423800002318,211.50423800002318,211.52117740001995,212.00375870004063,212.00626200000988,s,0,,0.49747850000858307,None,Sah21,119,2025-04-08_01h59.02.946,416_EXPERIMENT_PSYCHOPY_AU2220019_AU2220225,2024.2.4,60.01586819760468,2025-04-08 01h59.25.087594 +0530,
surprise_upper_blur.jpg,s,82,4,13,s,1,0.6296066000359133,None,13,4,82,4,212.02443210000638,,,,,,,,,,,,,,,,212.0195905000437,212.02443210000638,213.52086099999724,213.52086099999724,213.53776560002007,214.02062650001608,214.15551489999052,s,1,,0.6296066000359133,None,Sah21,119,2025-04-08_01h59.02.946,416_EXPERIMENT_PSYCHOPY_AU2220019_AU2220225,2024.2.4,60.01586819760468,2025-04-08 01h59.25.087594 +0530,
fear.jpg,f,83,5,13,f,1,0.5172853000112809,None,13,5,83,0,214.17428650002694,,,,,,,,,,,,,,,,214.16989140002988,214.17428650002694,215.67139800003497,215.67139800003497,215.68746710004052,216.17041720001725,216.20616570004495,f,1,,0.5172853000112809,None,Sah21,119,2025-04-08_01h59.02.946,416_EXPERIMENT_PSYCHOPY_AU2220019_AU2220225,2024.2.4,60.01586819760468,2025-04-08 01h59.25.087594 +0530,
fear_upper_blur.jpg,f,84,0,14,f,1,0.46286650002002716,None,14,0,84,2,216.22274040000048,,,,,,,,,,,,,,,,216.218646000023,216.22274040000048,217.72116620000452,217.72116620000452,217.73791580001125,,218.19004800001858,f,1,,0.46286650002002716,None,Sah21,119,2025-04-08_01h59.02.946,416_EXPERIMENT_PSYCHOPY_AU2220019_AU2220225,2024.2.4,60.01586819760468,2025-04-08 01h59.25.087594 +0530,
surprise_upper_blur.jpg,s,85,1,14,s,1,0.5800464000203647,None,14,1,85,4,218.20791779999854,,,,,,,,,,,,,,,,218.20294450002257,218.20791779999854,219.70439890003763,219.70439890003763,219.72083390003536,220.20423370000208,220.28821680002147,s,1,,0.5800464000203647,None,Sah21,119,2025-04-08_01h59.02.946,416_EXPERIMENT_PSYCHOPY_AU2220019_AU2220225,2024.2.4,60.01586819760468,2025-04-08 01h59.25.087594 +0530,
fear_lower_blur.jpg,f,86,2,14,None,0,,,14,2,86,3,220.30534580000676,,,,,,,,,,,,,,,,220.30089499999303,220.30534580000676,221.8038235999993,221.8038235999993,221.82048240001313,222.30400330002885,222.538517100038,None,0,222.55645289999666,,,Sah21,119,2025-04-08_01h59.02.946,416_EXPERIMENT_PSYCHOPY_AU2220019_AU2220225,2024.2.4,60.01586819760468,2025-04-08 01h59.25.087594 +0530,
surprise.jpg,s,87,3,14,None,0,,,14,3,87,1,222.55645289999666,,,,,,,,,,,,,,,,222.55222790001426,222.55645289999666,224.03753120003967,224.03753120003967,224.07133070001146,224.53719830000773,224.7721118000336,None,0,224.78944250004133,,,Sah21,119,2025-04-08_01h59.02.946,416_EXPERIMENT_PSYCHOPY_AU2220019_AU2220225,2024.2.4,60.01586819760468,2025-04-08 01h59.25.087594 +0530,
fear.jpg,f,88,4,14,f,1,0.4478236999711953,None,14,4,88,0,224.78944250004133,,,,,,,,,,,,,,,,224.78528060001554,224.80418500001542,226.30463820003206,226.30463820003206,226.30463820003206,,226.75693770003272,f,1,,0.4478236999711953,None,Sah21,119,2025-04-08_01h59.02.946,416_EXPERIMENT_PSYCHOPY_AU2220019_AU2220225,2024.2.4,60.01586819760468,2025-04-08 01h59.25.087594 +0530,
surprise_lower_blur.jpg,s,89,5,14,s,1,0.4723528000176884,None,14,5,89,5,226.77418480004417,,,,,,,,,,,,,,,,226.76981369999703,226.77418480004417,228.27074890001677,228.27074890001677,228.28852040000493,228.7765898000216,228.75696600001538,s,1,,0.4723528000176884,None,Sah21,119,2025-04-08_01h59.02.946,416_EXPERIMENT_PSYCHOPY_AU2220019_AU2220225,2024.2.4,60.01586819760468,2025-04-08 01h59.25.087594 +0530,
fear.jpg,f,90,0,15,f,1,0.44130259996745735,None,15,0,90,0,228.7765898000216,,,,,,,,,,,,,,,,228.77054990001488,228.7765898000216,230.27087390003726,230.27087390003726,230.28754620003747,,230.7234429999953,f,1,,0.44130259996745735,None,Sah21,119,2025-04-08_01h59.02.946,416_EXPERIMENT_PSYCHOPY_AU2220019_AU2220225,2024.2.4,60.01586819760468,2025-04-08 01h59.25.087594 +0530,
fear_lower_blur.jpg,f,91,1,15,s,0,0.499986800015904,None,15,1,91,3,230.74057290004566,,,,,,,,,,,,,,,,230.735937200021,230.74057290004566,232.23764980002306,232.23764980002306,232.2543413999956,232.73764950002078,232.74159520003013,s,0,,0.499986800015904,None,Sah21,119,2025-04-08_01h59.02.946,416_EXPERIMENT_PSYCHOPY_AU2220019_AU2220225,2024.2.4,60.01586819760468,2025-04-08 01h59.25.087594 +0530,
surprise_lower_blur.jpg,s,92,2,15,s,1,0.6360341000254266,None,15,2,92,5,232.75831410003593,,,,,,,,,,,,,,,,232.75350009999238,232.75831410003593,234.25416040001437,234.25416040001437,234.2708034000243,234.75412130000768,234.90603030001512,s,1,,0.6360341000254266,None,Sah21,119,2025-04-08_01h59.02.946,416_EXPERIMENT_PSYCHOPY_AU2220019_AU2220225,2024.2.4,60.01586819760468,2025-04-08 01h59.25.087594 +0530,
surprise.jpg,s,93,3,15,f,0,0.5317483000108041,None,15,3,93,1,234.92442749999464,,,,,,,,,,,,,,,,234.91980329999933,234.92442749999464,236.4212799000088,236.4212799000088,236.43761960003758,236.92036180000287,236.95611160004046,f,0,,0.5317483000108041,None,Sah21,119,2025-04-08_01h59.02.946,416_EXPERIMENT_PSYCHOPY_AU2220019_AU2220225,2024.2.4,60.01586819760468,2025-04-08 01h59.25.087594 +0530,
fear_upper_blur.jpg,f,94,4,15,None,0,,,15,4,94,2,236.97278990002815,,,,,,,,,,,,,,,,236.96835100004682,236.97278990002815,238.4710317000281,238.4710317000281,238.48755950003397,238.97074780002004,239.2055213000276,None,0,239.22227289999137,,,Sah21,119,2025-04-08_01h59.02.946,416_EXPERIMENT_PSYCHOPY_AU2220019_AU2220225,2024.2.4,60.01586819760468,2025-04-08 01h59.25.087594 +0530,
surprise_upper_blur.jpg,s,95,5,15,s,1,0.6324796000262722,None,15,5,95,4,239.22227289999137,,,,,,,,,,,,,,,,239.21800430002622,239.22227289999137,240.72101959999418,240.72101959999418,240.73750190000283,241.22084150003502,241.35670530004427,s,1,,0.6324796000262722,None,Sah21,119,2025-04-08_01h59.02.946,416_EXPERIMENT_PSYCHOPY_AU2220019_AU2220225,2024.2.4,60.01586819760468,2025-04-08 01h59.25.087594 +0530,
fear_lower_blur.jpg,f,96,0,16,f,1,0.6161537999869324,None,16,0,96,3,241.37394479999784,,,,,,,,,,,,,,,,241.3691963000456,241.37394479999784,242.87138100003358,242.87138100003358,242.88801430002786,243.37079980003182,243.49143400002504,f,1,,0.6161537999869324,None,Sah21,119,2025-04-08_01h59.02.946,416_EXPERIMENT_PSYCHOPY_AU2220019_AU2220225,2024.2.4,60.01586819760468,2025-04-08 01h59.25.087594 +0530,
surprise_lower_blur.jpg,s,97,1,16,None,0,,,16,1,97,5,243.508358400024,,,,,,,,,,,,,,,,243.50357060000533,243.508358400024,245.00426160002826,245.00426160002826,245.02138510002987,245.5036977000418,245.73887550004292,None,0,245.75577340001473,,,Sah21,119,2025-04-08_01h59.02.946,416_EXPERIMENT_PSYCHOPY_AU2220019_AU2220225,2024.2.4,60.01586819760468,2025-04-08 01h59.25.087594 +0530,
surprise.jpg,s,98,2,16,f,0,0.6508451999980025,None,16,2,98,1,245.75577340001473,,,,,,,,,,,,,,,,245.75192609999795,245.75577340001473,247.25450670003192,247.25450670003192,247.27110090001952,247.75431879999815,247.92212320002727,f,0,,0.6508451999980025,None,Sah21,119,2025-04-08_01h59.02.946,416_EXPERIMENT_PSYCHOPY_AU2220019_AU2220225,2024.2.4,60.01586819760468,2025-04-08 01h59.25.087594 +0530,
fear.jpg,f,99,3,16,f,1,0.6872160999919288,None,16,3,99,0,247.939543400018,,,,,,,,,,,,,,,,247.93531279999297,247.939543400018,249.43778490001569,249.43778490001569,249.45494650001638,249.93731340003433,250.13916050002445,f,1,,0.6872160999919288,None,Sah21,119,2025-04-08_01h59.02.946,416_EXPERIMENT_PSYCHOPY_AU2220019_AU2220225,2024.2.4,60.01586819760468,2025-04-08 01h59.25.087594 +0530,
surprise_upper_blur.jpg,s,100,4,16,s,1,0.7091622999869287,None,16,4,100,4,250.15623510000296,,,,,,,,,,,,,,,,250.15159520000452,250.15623510000296,251.6547010000213,251.6547010000213,251.67125800001668,252.15432130004046,252.37286130001303,s,1,,0.7091622999869287,None,Sah21,119,2025-04-08_01h59.02.946,416_EXPERIMENT_PSYCHOPY_AU2220019_AU2220225,2024.2.4,60.01586819760468,2025-04-08 01h59.25.087594 +0530,
fear_upper_blur.jpg,f,101,5,16,None,0,,,16,5,101,2,252.39014420000603,,,,,,,,,,,,,,,,252.38518410001416,252.39014420000603,253.8877547000302,253.8877547000302,253.9045621000114,254.38696940004593,254.62261770002078,None,0,254.64107479999075,,,Sah21,119,2025-04-08_01h59.02.946,416_EXPERIMENT_PSYCHOPY_AU2220019_AU2220225,2024.2.4,60.01586819760468,2025-04-08 01h59.25.087594 +0530,
surprise.jpg,s,102,0,17,s,1,0.5293661000323482,None,17,0,102,1,254.64107479999075,,,,,,,,,,,,,,,,254.63607240002602,254.64107479999075,256.13763370004017,256.13763370004017,256.15426650003064,256.63739160000114,256.67244799999753,s,1,,0.5293661000323482,None,Sah21,119,2025-04-08_01h59.02.946,416_EXPERIMENT_PSYCHOPY_AU2220019_AU2220225,2024.2.4,60.01586819760468,2025-04-08 01h59.25.087594 +0530,
fear_upper_blur.jpg,f,103,1,17,f,1,0.45758719998411834,None,17,1,103,2,256.69008090003626,,,,,,,,,,,,,,,,256.68550230003893,256.69008090003626,258.187812499993,258.187812499993,258.20442419999745,,258.65622430003714,f,1,,0.45758719998411834,None,Sah21,119,2025-04-08_01h59.02.946,416_EXPERIMENT_PSYCHOPY_AU2220019_AU2220225,2024.2.4,60.01586819760468,2025-04-08 01h59.25.087594 +0530,
fear.jpg,f,104,2,17,s,0,0.362419500015676,None,17,2,104,0,258.6744719000417,,,,,,,,,,,,,,,,258.66965140000684,258.6744719000417,260.17126890004147,260.17126890004147,260.18777830002364,,260.5398899000138,s,0,,0.362419500015676,None,Sah21,119,2025-04-08_01h59.02.946,416_EXPERIMENT_PSYCHOPY_AU2220019_AU2220225,2024.2.4,60.01586819760468,2025-04-08 01h59.25.087594 +0530,
fear_lower_blur.jpg,f,105,3,17,None,0,,,17,3,105,3,260.5578980999999,,,,,,,,,,,,,,,,260.55287780001527,260.5578980999999,262.05435779999243,262.05435779999243,262.0710062000435,262.5542342000408,262.7888605000335,None,0,262.80568889999995,,,Sah21,119,2025-04-08_01h59.02.946,416_EXPERIMENT_PSYCHOPY_AU2220019_AU2220225,2024.2.4,60.01586819760468,2025-04-08 01h59.25.087594 +0530,
surprise_lower_blur.jpg,s,106,4,17,s,1,0.7008952000178397,None,17,4,106,5,262.80568889999995,,,,,,,,,,,,,,,,262.801549100026,262.80568889999995,264.30432880000444,264.30432880000444,264.3212048000423,264.8041215999983,265.02278310002293,s,1,,0.7008952000178397,None,Sah21,119,2025-04-08_01h59.02.946,416_EXPERIMENT_PSYCHOPY_AU2220019_AU2220225,2024.2.4,60.01586819760468,2025-04-08 01h59.25.087594 +0530,
surprise_upper_blur.jpg,s,107,5,17,None,0,,,17,5,107,4,265.03949699999066,,,,,,,,,,,,,,,,265.035469800001,265.03949699999066,266.5384679000126,266.5384679000126,266.55483070004266,267.0380410000216,267.27306450001197,None,0,267.2922266999958,,,Sah21,119,2025-04-08_01h59.02.946,416_EXPERIMENT_PSYCHOPY_AU2220019_AU2220225,2024.2.4,60.01586819760468,2025-04-08 01h59.25.087594 +0530,
surprise_upper_blur.jpg,s,108,0,18,None,0,,,18,0,108,4,267.2922266999958,,,,,,,,,,,,,,,,267.2859499999904,267.2922266999958,268.7883927000221,268.7883927000221,268.8049335000105,269.28794860001653,269.52252950001275,None,0,269.5413708999986,,,Sah21,119,2025-04-08_01h59.02.946,416_EXPERIMENT_PSYCHOPY_AU2220019_AU2220225,2024.2.4,60.01586819760468,2025-04-08 01h59.25.087594 +0530,
surprise.jpg,s,109,1,18,s,1,0.6315262999851257,None,18,1,109,1,269.5413708999986,,,,,,,,,,,,,,,,269.5366253000102,269.5413708999986,271.03836380003486,271.03836380003486,271.0553493000334,271.5379776000045,271.6741319000139,s,1,,0.6315262999851257,None,Sah21,119,2025-04-08_01h59.02.946,416_EXPERIMENT_PSYCHOPY_AU2220019_AU2220225,2024.2.4,60.01586819760468,2025-04-08 01h59.25.087594 +0530,
fear.jpg,f,110,2,18,f,1,0.5174578999867663,None,18,2,110,0,271.69476929999655,,,,,,,,,,,,,,,,271.687997800007,271.69476929999655,273.1883901000256,273.1883901000256,273.20528340002056,273.6879712000373,273.7232620000141,f,1,,0.5174578999867663,None,Sah21,119,2025-04-08_01h59.02.946,416_EXPERIMENT_PSYCHOPY_AU2220019_AU2220225,2024.2.4,60.01586819760468,2025-04-08 01h59.25.087594 +0530,
fear_upper_blur.jpg,f,111,3,18,None,0,,,18,3,111,2,273.740392000007,,,,,,,,,,,,,,,,273.7359449000214,273.740392000007,275.23844049999025,275.23844049999025,275.2552211000002,275.7379009000142,275.9728325000033,None,0,275.99098170001525,,,Sah21,119,2025-04-08_01h59.02.946,416_EXPERIMENT_PSYCHOPY_AU2220019_AU2220225,2024.2.4,60.01586819760468,2025-04-08 01h59.25.087594 +0530,
surprise_lower_blur.jpg,s,112,4,18,None,0,,,18,4,112,5,275.99098170001525,,,,,,,,,,,,,,,,275.98587550001685,275.99098170001525,277.48901720001595,277.48901720001595,277.50520700000925,277.9882023000391,278.23853180004517,None,0,,,,Sah21,119,2025-04-08_01h59.02.946,416_EXPERIMENT_PSYCHOPY_AU2220019_AU2220225,2024.2.4,60.01586819760468,2025-04-08 01h59.25.087594 +0530,
fear_lower_blur.jpg,f,113,5,18,s,0,0.48647850000998005,None,18,5,113,3,278.2560262000188,,,,,,,,,,,,,,,,278.2512140000472,278.2560262000188,279.7382585000014,279.7382585000014,279.771384200023,280.23809360002633,280.24017810000805,s,0,,0.48647850000998005,None,Sah21,119,2025-04-08_01h59.02.946,416_EXPERIMENT_PSYCHOPY_AU2220019_AU2220225,2024.2.4,60.01586819760468,2025-04-08 01h59.25.087594 +0530,
surprise_upper_blur.jpg,s,114,0,19,None,0,,,19,0,114,4,280.25733059999766,,,,,,,,,,,,,,,,280.25251880002907,280.25733059999766,281.754602800007,281.754602800007,281.7707216000417,282.2547179000103,282.4894494000473,None,0,282.50633480004035,,,Sah21,119,2025-04-08_01h59.02.946,416_EXPERIMENT_PSYCHOPY_AU2220019_AU2220225,2024.2.4,60.01586819760468,2025-04-08 01h59.25.087594 +0530,
fear_upper_blur.jpg,f,115,1,19,f,1,0.669149000023026,None,19,1,115,2,282.50633480004035,,,,,,,,,,,,,,,,282.50208340003155,282.50633480004035,284.0045968000195,284.0045968000195,284.02153470000485,284.50448410003446,284.6896034000092,f,1,,0.669149000023026,None,Sah21,119,2025-04-08_01h59.02.946,416_EXPERIMENT_PSYCHOPY_AU2220019_AU2220225,2024.2.4,60.01586819760468,2025-04-08 01h59.25.087594 +0530,
surprise_lower_blur.jpg,s,116,2,19,s,1,0.6722106999950483,None,19,2,116,5,284.7073396000196,,,,,,,,,,,,,,,,284.70216680003796,284.7073396000196,286.205409599992,286.205409599992,286.2221165000228,286.70487850002246,286.8889531000168,s,1,,0.6722106999950483,None,Sah21,119,2025-04-08_01h59.02.946,416_EXPERIMENT_PSYCHOPY_AU2220019_AU2220225,2024.2.4,60.01586819760468,2025-04-08 01h59.25.087594 +0530,
fear.jpg,f,117,3,19,None,0,,,19,3,117,0,286.90669930004515,,,,,,,,,,,,,,,,286.90233090001857,286.90669930004515,288.38851810002234,288.38851810002234,288.4217442999943,288.8878575999988,289.12310520000756,None,0,289.1408378999913,,,Sah21,119,2025-04-08_01h59.02.946,416_EXPERIMENT_PSYCHOPY_AU2220019_AU2220225,2024.2.4,60.01586819760468,2025-04-08 01h59.25.087594 +0530,
surprise.jpg,s,118,4,19,f,0,0.6005698000080884,None,19,4,118,1,289.1408378999913,,,,,,,,,,,,,,,,289.1365927000297,289.1408378999913,290.6551522000227,290.6551522000227,290.6551522000227,291.15423899999587,291.25937949999934,f,0,,0.6005698000080884,None,Sah21,119,2025-04-08_01h59.02.946,416_EXPERIMENT_PSYCHOPY_AU2220019_AU2220225,2024.2.4,60.01586819760468,2025-04-08 01h59.25.087594 +0530,
fear_lower_blur.jpg,f,119,5,19,f,1,0.6003469999996014,None,19,5,119,3,291.2778071000357,,,,,,,,,,,,,,,,291.2728592000203,291.2778071000357,292.7720593000413,292.7720593000413,292.78838840004755,293.2712223000126,293.3898716000258,f,1,,0.6003469999996014,None,Sah21,119,2025-04-08_01h59.02.946,416_EXPERIMENT_PSYCHOPY_AU2220019_AU2220225,2024.2.4,60.01586819760468,2025-04-08 01h59.25.087594 +0530,
