stimulus_image,correct_response,thisN,thisTrialN,thisRepN,key_resp.keys,key_resp.corr,key_resp.rt,key_resp.duration,loop.thisRepN,loop.thisTrialN,loop.thisN,loop.thisIndex,thisRow.t,notes,guide.started,instructions.started,ins_resp.started,guide.stopped,ins_resp.keys,ins_resp.rt,ins_resp.duration,guide_2.started,text.started,key_resp_2.started,guide_2.stopped,key_resp_2.keys,key_resp_2.rt,key_resp_2.duration,trial.started,fixation.started,image.started,key_resp.started,fixation.stopped,image.stopped,key_resp.stopped,trial.stopped,loop.key_resp.keys,loop.key_resp.corr,loop.key_resp.rt,loop.key_resp.duration,participant,session,date,expName,psychopyVersion,frameRate,expStart,
,,,,,,,,,,,,,,,0.0016364000039175153,0.0042987000197172165,0.0042987000197172165,82.50178990000859,space,82.45297099999152,None,,,,,,,,,,,,,,,,,,,,SK17,101,2025-04-01_09h55.58.335,416_EXPERIMENT_PSYCHOPY_AU2220019_AU2220225,2024.2.4,59.736656946935554,2025-04-01 10h06.04.277912 +0530,
,,,,,,,,,,,,,,,,,,,,,,82.5018459999701,82.50542739999946,82.50542739999946,87.7160392999649,space,5.2054158000973985,None,,,,,,,,,,,,,SK17,101,2025-04-01_09h55.58.335,416_EXPERIMENT_PSYCHOPY_AU2220019_AU2220225,2024.2.4,59.736656946935554,2025-04-01 10h06.04.277912 +0530,
fear_lower_blur.jpg,f,0,0,0,None,0,,,0,0,0,3,87.78326920000836,,,,,,,,,,,,,,,,87.77819670003373,87.78326920000836,89.21594610007014,89.21594610007014,89.28212180000264,89.715082300012,89.96562629996333,89.94895500002895,None,0,,,SK17,101,2025-04-01_09h55.58.335,416_EXPERIMENT_PSYCHOPY_AU2220019_AU2220225,2024.2.4,59.736656946935554,2025-04-01 10h06.04.277912 +0530,
surprise_upper_blur.jpg,s,1,1,0,None,0,,,0,1,1,4,89.96562629996333,,,,,,,,,,,,,,,,89.95489509997424,89.98194179998245,91.46605519996956,91.46605519996956,91.4824290999677,91.96518359996844,92.21554190001916,92.19955600006506,None,0,,,SK17,101,2025-04-01_09h55.58.335,416_EXPERIMENT_PSYCHOPY_AU2220019_AU2220225,2024.2.4,59.736656946935554,2025-04-01 10h06.04.277912 +0530,
surprise_lower_blur.jpg,s,2,2,0,None,0,,,0,2,2,5,92.21554190001916,,,,,,,,,,,,,,,,92.20755230006762,92.21554190001916,93.71586290001869,93.71586290001869,93.71586290001869,94.2151528999675,94.4657810999779,94.44972190004773,None,0,,,SK17,101,2025-04-01_09h55.58.335,416_EXPERIMENT_PSYCHOPY_AU2220019_AU2220225,2024.2.4,59.736656946935554,2025-04-01 10h06.04.277912 +0530,
fear_upper_blur.jpg,f,3,3,0,None,0,,,0,3,3,2,94.4657810999779,,,,,,,,,,,,,,,,94.45860030001495,94.4657810999779,95.96546149998903,95.96546149998903,95.96546149998903,96.46537930006161,96.7155955999624,96.69942039996386,None,0,,,SK17,101,2025-04-01_09h55.58.335,416_EXPERIMENT_PSYCHOPY_AU2220019_AU2220225,2024.2.4,59.736656946935554,2025-04-01 10h06.04.277912 +0530,
fear.jpg,f,4,4,0,None,0,,,0,4,4,0,96.7155955999624,,,,,,,,,,,,,,,,96.70949100004509,96.7155955999624,98.21599960001186,98.21599960001186,98.21599960001186,98.71551680006087,98.96556150005199,98.94895390002057,None,0,,,SK17,101,2025-04-01_09h55.58.335,416_EXPERIMENT_PSYCHOPY_AU2220019_AU2220225,2024.2.4,59.736656946935554,2025-04-01 10h06.04.277912 +0530,
surprise.jpg,s,5,5,0,None,0,,,0,5,5,1,98.96556150005199,,,,,,,,,,,,,,,,98.95517950004432,98.96556150005199,100.46547050005756,100.46547050005756,100.46547050005756,100.96546009997837,101.21528450003825,101.19950550002977,None,0,,,SK17,101,2025-04-01_09h55.58.335,416_EXPERIMENT_PSYCHOPY_AU2220019_AU2220225,2024.2.4,59.736656946935554,2025-04-01 10h06.04.277912 +0530,
surprise.jpg,s,6,0,1,None,0,,,1,0,6,1,101.21528450003825,,,,,,,,,,,,,,,,101.20957820001058,101.21528450003825,102.71566700004041,102.71566700004041,102.71566700004041,103.21551470004488,103.46539799997117,103.44904950005002,None,0,,,SK17,101,2025-04-01_09h55.58.335,416_EXPERIMENT_PSYCHOPY_AU2220019_AU2220225,2024.2.4,59.736656946935554,2025-04-01 10h06.04.277912 +0530,
surprise_upper_blur.jpg,s,7,1,1,None,0,,,1,1,7,4,103.46539799997117,,,,,,,,,,,,,,,,103.45880959997885,103.46539799997117,104.96571799996309,104.96571799996309,104.96571799996309,105.46557930007111,105.71554450003896,105.6988462000154,None,0,,,SK17,101,2025-04-01_09h55.58.335,416_EXPERIMENT_PSYCHOPY_AU2220019_AU2220225,2024.2.4,59.736656946935554,2025-04-01 10h06.04.277912 +0530,
surprise_lower_blur.jpg,s,8,2,1,None,0,,,1,2,8,5,105.71554450003896,,,,,,,,,,,,,,,,105.70699360000435,105.71554450003896,107.21639029996004,107.21639029996004,107.21639029996004,107.71536440006457,107.98222270002589,107.96570729999803,None,0,,,SK17,101,2025-04-01_09h55.58.335,416_EXPERIMENT_PSYCHOPY_AU2220019_AU2220225,2024.2.4,59.736656946935554,2025-04-01 10h06.04.277912 +0530,
fear.jpg,f,9,3,1,None,0,,,1,3,9,0,107.98222270002589,,,,,,,,,,,,,,,,107.97073369997088,107.98222270002589,109.46554190001916,109.46554190001916,109.48201240005437,109.96512050007004,110.21539989998564,110.19912090001162,None,0,,,SK17,101,2025-04-01_09h55.58.335,416_EXPERIMENT_PSYCHOPY_AU2220019_AU2220225,2024.2.4,59.736656946935554,2025-04-01 10h06.04.277912 +0530,
fear_upper_blur.jpg,f,10,4,1,None,0,,,1,4,10,2,110.21539989998564,,,,,,,,,,,,,,,,110.20431239996105,110.21539989998564,111.71532269997988,111.71532269997988,111.71532269997988,112.21513769996818,112.46518790000118,112.44866830005776,None,0,,,SK17,101,2025-04-01_09h55.58.335,416_EXPERIMENT_PSYCHOPY_AU2220019_AU2220225,2024.2.4,59.736656946935554,2025-04-01 10h06.04.277912 +0530,
fear_lower_blur.jpg,f,11,5,1,None,0,,,1,5,11,3,112.46518790000118,,,,,,,,,,,,,,,,112.45332750002854,112.48157140007243,113.96574690006673,113.96574690006673,113.9824276000727,114.46532890002709,114.71512890001759,114.69944200001191,None,0,,,SK17,101,2025-04-01_09h55.58.335,416_EXPERIMENT_PSYCHOPY_AU2220019_AU2220225,2024.2.4,59.736656946935554,2025-04-01 10h06.04.277912 +0530,
fear_lower_blur.jpg,f,12,0,2,None,0,,,2,0,12,3,114.71512890001759,,,,,,,,,,,,,,,,114.70586149999872,114.71512890001759,116.21605120005552,116.21605120005552,116.21605120005552,116.71505920006894,116.96579579997342,116.94934910000302,None,0,,,SK17,101,2025-04-01_09h55.58.335,416_EXPERIMENT_PSYCHOPY_AU2220019_AU2220225,2024.2.4,59.736656946935554,2025-04-01 10h06.04.277912 +0530,
surprise_upper_blur.jpg,s,13,1,2,None,0,,,2,1,13,4,116.96579579997342,,,,,,,,,,,,,,,,116.9566389999818,116.96579579997342,118.46605120005552,118.46605120005552,118.46605120005552,118.96567629999481,119.21532199997455,119.19946889998391,None,0,,,SK17,101,2025-04-01_09h55.58.335,416_EXPERIMENT_PSYCHOPY_AU2220019_AU2220225,2024.2.4,59.736656946935554,2025-04-01 10h06.04.277912 +0530,
fear.jpg,f,14,2,2,None,0,,,2,2,14,0,119.21532199997455,,,,,,,,,,,,,,,,119.20951379998587,119.21532199997455,120.71569039998576,120.71569039998576,120.71569039998576,121.21556699997745,121.46552920003887,121.44936630001757,None,0,,,SK17,101,2025-04-01_09h55.58.335,416_EXPERIMENT_PSYCHOPY_AU2220019_AU2220225,2024.2.4,59.736656946935554,2025-04-01 10h06.04.277912 +0530,
surprise.jpg,s,15,3,2,None,0,,,2,3,15,1,121.46552920003887,,,,,,,,,,,,,,,,121.4564957000548,121.46552920003887,122.96593459998257,122.96593459998257,122.96593459998257,123.46499220002443,123.71540860005189,123.69902890000958,None,0,,,SK17,101,2025-04-01_09h55.58.335,416_EXPERIMENT_PSYCHOPY_AU2220019_AU2220225,2024.2.4,59.736656946935554,2025-04-01 10h06.04.277912 +0530,
surprise_lower_blur.jpg,s,16,4,2,None,0,,,2,4,16,5,123.71540860005189,,,,,,,,,,,,,,,,123.70437599997967,123.71540860005189,125.21548640006222,125.21548640006222,125.21548640006222,125.7156968000345,125.96557290002238,125.94954609998967,None,0,,,SK17,101,2025-04-01_09h55.58.335,416_EXPERIMENT_PSYCHOPY_AU2220019_AU2220225,2024.2.4,59.736656946935554,2025-04-01 10h06.04.277912 +0530,
fear_upper_blur.jpg,f,17,5,2,None,0,,,2,5,17,2,125.96557290002238,,,,,,,,,,,,,,,,125.95668930001557,125.96557290002238,127.46534039999824,127.46534039999824,127.46534039999824,127.96499140001833,128.21581439999864,128.1991215000162,None,0,,,SK17,101,2025-04-01_09h55.58.335,416_EXPERIMENT_PSYCHOPY_AU2220019_AU2220225,2024.2.4,59.736656946935554,2025-04-01 10h06.04.277912 +0530,
fear_lower_blur.jpg,f,18,0,3,None,0,,,3,0,18,3,128.21581439999864,,,,,,,,,,,,,,,,128.20390289998613,128.21581439999864,129.71593649999704,129.71593649999704,129.71593649999704,130.2154281999683,130.46531600004528,130.44941890006885,None,0,,,SK17,101,2025-04-01_09h55.58.335,416_EXPERIMENT_PSYCHOPY_AU2220019_AU2220225,2024.2.4,59.736656946935554,2025-04-01 10h06.04.277912 +0530,
surprise_lower_blur.jpg,s,19,1,3,None,0,,,3,1,19,5,130.46531600004528,,,,,,,,,,,,,,,,130.4545595999807,130.46531600004528,131.96589760005008,131.96589760005008,131.96589760005008,132.46543740003835,132.71570010005962,132.6992104999954,None,0,,,SK17,101,2025-04-01_09h55.58.335,416_EXPERIMENT_PSYCHOPY_AU2220019_AU2220225,2024.2.4,59.736656946935554,2025-04-01 10h06.04.277912 +0530,
fear.jpg,f,20,2,3,f,1,0.5688639000291005,None,3,2,20,0,132.71570010005962,,,,,,,,,,,,,,,,132.70826630003285,132.71570010005962,134.21579879999626,134.21579879999626,134.21579879999626,134.71547749999445,,134.79907660000026,f,1,0.5688639000291005,None,SK17,101,2025-04-01_09h55.58.335,416_EXPERIMENT_PSYCHOPY_AU2220019_AU2220225,2024.2.4,59.736656946935554,2025-04-01 10h06.04.277912 +0530,
fear_upper_blur.jpg,f,21,3,3,None,0,,,3,3,21,2,134.81545970006846,,,,,,,,,,,,,,,,134.8041750000557,134.81545970006846,136.299116600072,136.299116600072,136.31587359996047,136.79889910004567,137.04861629998777,137.03268389997538,None,0,,,SK17,101,2025-04-01_09h55.58.335,416_EXPERIMENT_PSYCHOPY_AU2220019_AU2220225,2024.2.4,59.736656946935554,2025-04-01 10h06.04.277912 +0530,
surprise.jpg,s,22,4,3,s,1,0.6757491000462323,None,3,4,22,1,137.04861629998777,,,,,,,,,,,,,,,,137.04014120006468,137.04861629998777,138.54954020003788,138.54954020003788,138.54954020003788,139.049136799993,,139.23336299997754,s,1,0.6757491000462323,None,SK17,101,2025-04-01_09h55.58.335,416_EXPERIMENT_PSYCHOPY_AU2220019_AU2220225,2024.2.4,59.736656946935554,2025-04-01 10h06.04.277912 +0530,
surprise_upper_blur.jpg,s,23,5,3,None,0,,,3,5,23,4,139.2493883999996,,,,,,,,,,,,,,,,139.24241710000206,139.2493883999996,140.74929050006904,140.74929050006904,140.74929050006904,141.24953669996466,141.49940970004536,141.48325980000664,None,0,,,SK17,101,2025-04-01_09h55.58.335,416_EXPERIMENT_PSYCHOPY_AU2220019_AU2220225,2024.2.4,59.736656946935554,2025-04-01 10h06.04.277912 +0530,
fear_upper_blur.jpg,f,24,0,4,None,0,,,4,0,24,2,141.49940970004536,,,,,,,,,,,,,,,,141.4933597999625,141.49940970004536,142.9993972000666,142.9993972000666,142.9993972000666,143.499336100067,143.7491630000295,143.73283029999584,None,0,,,SK17,101,2025-04-01_09h55.58.335,416_EXPERIMENT_PSYCHOPY_AU2220019_AU2220225,2024.2.4,59.736656946935554,2025-04-01 10h06.04.277912 +0530,
fear_lower_blur.jpg,f,25,1,4,f,1,0.704573699971661,None,4,1,25,3,143.7491630000295,,,,,,,,,,,,,,,,143.73817859997507,143.7491630000295,145.23283330001868,145.23283330001868,145.24905079999007,145.7324845000403,,145.95042820007075,f,1,0.704573699971661,None,SK17,101,2025-04-01_09h55.58.335,416_EXPERIMENT_PSYCHOPY_AU2220019_AU2220225,2024.2.4,59.736656946935554,2025-04-01 10h06.04.277912 +0530,
surprise_upper_blur.jpg,s,26,2,4,None,0,,,4,2,26,4,145.96657499996945,,,,,,,,,,,,,,,,145.95823009999003,145.96657499996945,147.4500510999933,147.4500510999933,147.4664329000516,147.9494030000642,148.21571959997527,148.199732100009,None,0,,,SK17,101,2025-04-01_09h55.58.335,416_EXPERIMENT_PSYCHOPY_AU2220019_AU2220225,2024.2.4,59.736656946935554,2025-04-01 10h06.04.277912 +0530,
surprise.jpg,s,27,3,4,s,1,0.6771394000388682,None,4,3,27,1,148.21571959997527,,,,,,,,,,,,,,,,148.20667620003223,148.21571959997527,149.7164824999636,149.7164824999636,149.7164824999636,150.21598820004147,,150.40091319999192,s,1,0.6771394000388682,None,SK17,101,2025-04-01_09h55.58.335,416_EXPERIMENT_PSYCHOPY_AU2220019_AU2220225,2024.2.4,59.736656946935554,2025-04-01 10h06.04.277912 +0530,
surprise_lower_blur.jpg,s,28,4,4,s,1,0.7051795999286696,None,4,4,28,5,150.4156626999611,,,,,,,,,,,,,,,,150.40676260006148,150.4156626999611,151.91626700002234,151.91626700002234,151.91626700002234,152.41622360004112,,152.63375749997795,s,1,0.7051795999286696,None,SK17,101,2025-04-01_09h55.58.335,416_EXPERIMENT_PSYCHOPY_AU2220019_AU2220225,2024.2.4,59.736656946935554,2025-04-01 10h06.04.277912 +0530,
fear.jpg,f,29,5,4,None,0,,,4,5,29,0,152.65058450005017,,,,,,,,,,,,,,,,152.6452675999608,152.65058450005017,154.14976519998163,154.14976519998163,154.16625410004053,154.6496533000609,154.89975019998383,154.88352230004966,None,0,,,SK17,101,2025-04-01_09h55.58.335,416_EXPERIMENT_PSYCHOPY_AU2220019_AU2220225,2024.2.4,59.736656946935554,2025-04-01 10h06.04.277912 +0530,
fear.jpg,f,30,0,5,None,0,,,5,0,30,0,154.89975019998383,,,,,,,,,,,,,,,,154.89185170002747,154.89975019998383,156.39958359999582,156.39958359999582,156.39958359999582,156.89938870002516,157.14901489997283,157.133085199981,None,0,,,SK17,101,2025-04-01_09h55.58.335,416_EXPERIMENT_PSYCHOPY_AU2220019_AU2220225,2024.2.4,59.736656946935554,2025-04-01 10h06.04.277912 +0530,
surprise.jpg,s,31,1,5,None,0,,,5,1,31,1,157.14901489997283,,,,,,,,,,,,,,,,157.13827049999963,157.14901489997283,158.65005000005476,158.65005000005476,158.65005000005476,159.14913310005795,159.39966680004727,159.38315949996468,None,0,,,SK17,101,2025-04-01_09h55.58.335,416_EXPERIMENT_PSYCHOPY_AU2220019_AU2220225,2024.2.4,59.736656946935554,2025-04-01 10h06.04.277912 +0530,
surprise_lower_blur.jpg,s,32,2,5,None,0,,,5,2,32,5,159.39966680004727,,,,,,,,,,,,,,,,159.39267400000244,159.39966680004727,160.89946640003473,160.89946640003473,160.89946640003473,161.39881719998084,161.64979439997114,161.63324650004506,None,0,,,SK17,101,2025-04-01_09h55.58.335,416_EXPERIMENT_PSYCHOPY_AU2220019_AU2220225,2024.2.4,59.736656946935554,2025-04-01 10h06.04.277912 +0530,
fear_upper_blur.jpg,f,33,3,5,f,1,0.600918099982664,None,5,3,33,2,161.64979439997114,,,,,,,,,,,,,,,,161.6442042000126,161.64979439997114,163.14996159996372,163.14996159996372,163.14996159996372,163.65004830004182,,163.76661970000714,f,1,0.600918099982664,None,SK17,101,2025-04-01_09h55.58.335,416_EXPERIMENT_PSYCHOPY_AU2220019_AU2220225,2024.2.4,59.736656946935554,2025-04-01 10h06.04.277912 +0530,
fear_lower_blur.jpg,f,34,4,5,None,0,,,5,4,34,3,163.78279700002167,,,,,,,,,,,,,,,,163.7727263000561,163.78279700002167,165.2661629000213,165.2661629000213,165.2831101999618,165.76600030006375,166.0159360000398,165.99952770001255,None,0,,,SK17,101,2025-04-01_09h55.58.335,416_EXPERIMENT_PSYCHOPY_AU2220019_AU2220225,2024.2.4,59.736656946935554,2025-04-01 10h06.04.277912 +0530,
surprise_upper_blur.jpg,s,35,5,5,None,0,,,5,5,35,4,166.0159360000398,,,,,,,,,,,,,,,,166.00861140002962,166.0324682999635,167.53229380003177,167.53229380003177,167.53229380003177,168.0320803000359,168.28223100001924,168.26609130005818,None,0,,,SK17,101,2025-04-01_09h55.58.335,416_EXPERIMENT_PSYCHOPY_AU2220019_AU2220225,2024.2.4,59.736656946935554,2025-04-01 10h06.04.277912 +0530,
surprise.jpg,s,36,0,6,None,0,,,6,0,36,1,168.28223100001924,,,,,,,,,,,,,,,,168.27251030004118,168.28223100001924,169.78227910003625,169.78227910003625,169.78227910003625,170.28211200004444,170.5321382000111,170.51617700001225,None,0,,,SK17,101,2025-04-01_09h55.58.335,416_EXPERIMENT_PSYCHOPY_AU2220019_AU2220225,2024.2.4,59.736656946935554,2025-04-01 10h06.04.277912 +0530,
fear_lower_blur.jpg,f,37,1,6,None,0,,,6,1,37,3,170.5321382000111,,,,,,,,,,,,,,,,170.5239322000416,170.5321382000111,172.03219090006314,172.03219090006314,172.03219090006314,172.5319726000307,172.78209460002836,172.76541200000793,None,0,,,SK17,101,2025-04-01_09h55.58.335,416_EXPERIMENT_PSYCHOPY_AU2220019_AU2220225,2024.2.4,59.736656946935554,2025-04-01 10h06.04.277912 +0530,
fear.jpg,f,38,2,6,None,0,,,6,2,38,0,172.78209460002836,,,,,,,,,,,,,,,,172.77180099999532,172.78209460002836,174.28224680002313,174.28224680002313,174.28224680002313,174.78180009999778,175.03237410006113,175.01585039997008,None,0,,,SK17,101,2025-04-01_09h55.58.335,416_EXPERIMENT_PSYCHOPY_AU2220019_AU2220225,2024.2.4,59.736656946935554,2025-04-01 10h06.04.277912 +0530,
surprise_lower_blur.jpg,s,39,3,6,s,1,0.6329233000287786,None,6,3,39,5,175.03237410006113,,,,,,,,,,,,,,,,175.02522499999031,175.03237410006113,176.53263200004585,176.53263200004585,176.53263200004585,177.03218860004563,,177.16739900002722,s,1,0.6329233000287786,None,SK17,101,2025-04-01_09h55.58.335,416_EXPERIMENT_PSYCHOPY_AU2220019_AU2220225,2024.2.4,59.736656946935554,2025-04-01 10h06.04.277912 +0530,
fear_upper_blur.jpg,f,40,4,6,None,0,,,6,4,40,2,177.18194470007438,,,,,,,,,,,,,,,,177.17714669997804,177.18194470007438,178.68231399997603,178.68231399997603,178.68231399997603,179.18220400006976,179.43238899996504,179.41632229997776,None,0,,,SK17,101,2025-04-01_09h55.58.335,416_EXPERIMENT_PSYCHOPY_AU2220019_AU2220225,2024.2.4,59.736656946935554,2025-04-01 10h06.04.277912 +0530,
surprise_upper_blur.jpg,s,41,5,6,None,0,,,6,5,41,4,179.43238899996504,,,,,,,,,,,,,,,,179.4274415000109,179.43238899996504,180.932126800064,180.932126800064,180.932126800064,181.43217280006502,181.68230500002392,181.6661662000697,None,0,,,SK17,101,2025-04-01_09h55.58.335,416_EXPERIMENT_PSYCHOPY_AU2220019_AU2220225,2024.2.4,59.736656946935554,2025-04-01 10h06.04.277912 +0530,
surprise_lower_blur.jpg,s,42,0,7,None,0,,,7,0,42,5,181.68230500002392,,,,,,,,,,,,,,,,181.67540259996895,181.68230500002392,183.18214779999107,183.18214779999107,183.18214779999107,183.68203580006957,183.93183999997564,183.9154715000186,None,0,,,SK17,101,2025-04-01_09h55.58.335,416_EXPERIMENT_PSYCHOPY_AU2220019_AU2220225,2024.2.4,59.736656946935554,2025-04-01 10h06.04.277912 +0530,
fear.jpg,f,43,1,7,f,1,0.6059341999934986,None,7,1,43,0,183.93183999997564,,,,,,,,,,,,,,,,183.92084150004666,183.93183999997564,185.43227410002146,185.43227410002146,185.43227410002146,185.93207770003937,,186.04905500006862,f,1,0.6059341999934986,None,SK17,101,2025-04-01_09h55.58.335,416_EXPERIMENT_PSYCHOPY_AU2220019_AU2220225,2024.2.4,59.736656946935554,2025-04-01 10h06.04.277912 +0530,
surprise.jpg,s,44,2,7,s,1,0.5781263000098988,None,7,2,44,1,186.06547240004875,,,,,,,,,,,,,,,,186.0539263000246,186.06547240004875,187.54908520006575,187.54908520006575,187.56581379997078,188.04861070006154,,188.13271530007478,s,1,0.5781263000098988,None,SK17,101,2025-04-01_09h55.58.335,416_EXPERIMENT_PSYCHOPY_AU2220019_AU2220225,2024.2.4,59.736656946935554,2025-04-01 10h06.04.277912 +0530,
fear_upper_blur.jpg,f,45,3,7,f,1,0.6362831000005826,None,7,3,45,2,188.14840110007208,,,,,,,,,,,,,,,,188.1379824000178,188.14840110007208,189.6323524999898,189.6323524999898,189.6487754000118,190.13176670006942,,190.28278490004595,f,1,0.6362831000005826,None,SK17,101,2025-04-01_09h55.58.335,416_EXPERIMENT_PSYCHOPY_AU2220019_AU2220225,2024.2.4,59.736656946935554,2025-04-01 10h06.04.277912 +0530,
surprise_upper_blur.jpg,s,46,4,7,s,1,0.6233508000150323,None,7,4,46,4,190.29894550004974,,,,,,,,,,,,,,,,190.28747580002528,190.29894550004974,191.79924099997152,191.79924099997152,191.79924099997152,192.2986738999607,,192.43306070007384,s,1,0.6233508000150323,None,SK17,101,2025-04-01_09h55.58.335,416_EXPERIMENT_PSYCHOPY_AU2220019_AU2220225,2024.2.4,59.736656946935554,2025-04-01 10h06.04.277912 +0530,
fear_lower_blur.jpg,f,47,5,7,f,1,0.4970039000036195,None,7,5,47,3,192.44912780006416,,,,,,,,,,,,,,,,192.44141510000918,192.44912780006416,193.94913429999724,193.94913429999724,193.94913429999724,194.4484656000277,,194.44936019997112,f,1,0.4970039000036195,None,SK17,101,2025-04-01_09h55.58.335,416_EXPERIMENT_PSYCHOPY_AU2220019_AU2220225,2024.2.4,59.736656946935554,2025-04-01 10h06.04.277912 +0530,
fear.jpg,f,48,0,8,None,0,,,8,0,48,0,194.465455400059,,,,,,,,,,,,,,,,194.4542567000026,194.465455400059,195.949032500037,195.949032500037,195.9659268000396,196.44845000002533,196.69875490001868,196.68237739999313,None,0,,,SK17,101,2025-04-01_09h55.58.335,416_EXPERIMENT_PSYCHOPY_AU2220019_AU2220225,2024.2.4,59.736656946935554,2025-04-01 10h06.04.277912 +0530,
fear_upper_blur.jpg,f,49,1,8,None,0,,,8,1,49,2,196.69875490001868,,,,,,,,,,,,,,,,196.68834920006339,196.69875490001868,198.21590850001667,198.21590850001667,198.19877160002943,198.71546300000045,198.9654894999694,198.94968199997675,None,0,,,SK17,101,2025-04-01_09h55.58.335,416_EXPERIMENT_PSYCHOPY_AU2220019_AU2220225,2024.2.4,59.736656946935554,2025-04-01 10h06.04.277912 +0530,
surprise_upper_blur.jpg,s,50,2,8,None,0,,,8,2,50,4,198.9654894999694,,,,,,,,,,,,,,,,198.95430700003635,198.9654894999694,200.44924260000698,200.44924260000698,200.46534560003784,200.9490117999958,201.1993585000746,201.18250590004027,None,0,,,SK17,101,2025-04-01_09h55.58.335,416_EXPERIMENT_PSYCHOPY_AU2220019_AU2220225,2024.2.4,59.736656946935554,2025-04-01 10h06.04.277912 +0530,
surprise.jpg,s,51,3,8,s,1,0.5533449000213295,None,8,3,51,1,201.1993585000746,,,,,,,,,,,,,,,,201.19281829998363,201.1993585000746,202.699003500049,202.699003500049,202.699003500049,203.1988353000488,,203.2664947999874,s,1,0.5533449000213295,None,SK17,101,2025-04-01_09h55.58.335,416_EXPERIMENT_PSYCHOPY_AU2220019_AU2220225,2024.2.4,59.736656946935554,2025-04-01 10h06.04.277912 +0530,
surprise_lower_blur.jpg,s,52,4,8,s,1,0.7122095000231639,None,8,4,52,5,203.28205410006922,,,,,,,,,,,,,,,,203.27285269997083,203.28205410006922,204.7824358000653,204.7824358000653,204.7824358000653,205.28213449998293,,205.49944420007523,s,1,0.7122095000231639,None,SK17,101,2025-04-01_09h55.58.335,416_EXPERIMENT_PSYCHOPY_AU2220019_AU2220225,2024.2.4,59.736656946935554,2025-04-01 10h06.04.277912 +0530,
fear_lower_blur.jpg,f,53,5,8,f,1,0.5803621999220923,None,8,5,53,3,205.51535470003728,,,,,,,,,,,,,,,,205.50418010004796,205.51535470003728,206.998773099971,206.998773099971,207.01570059999358,207.4987219000468,,207.58247410005424,f,1,0.5803621999220923,None,SK17,101,2025-04-01_09h55.58.335,416_EXPERIMENT_PSYCHOPY_AU2220019_AU2220225,2024.2.4,59.736656946935554,2025-04-01 10h06.04.277912 +0530,
surprise_lower_blur.jpg,s,54,0,9,s,1,0.6362534000072628,None,9,0,54,5,207.59884370001964,,,,,,,,,,,,,,,,207.58709990000352,207.59884370001964,209.08225189999212,209.08225189999212,209.0988993999781,209.58217409998178,,209.73307940002996,s,1,0.6362534000072628,None,SK17,101,2025-04-01_09h55.58.335,416_EXPERIMENT_PSYCHOPY_AU2220019_AU2220225,2024.2.4,59.736656946935554,2025-04-01 10h06.04.277912 +0530,
fear.jpg,f,55,1,9,None,0,,,9,1,55,0,209.74866200005636,,,,,,,,,,,,,,,,209.7392014999641,209.74866200005636,211.24928660003934,211.24928660003934,211.24928660003934,211.74853520002216,211.99873320001643,211.98262210004032,None,0,,,SK17,101,2025-04-01_09h55.58.335,416_EXPERIMENT_PSYCHOPY_AU2220019_AU2220225,2024.2.4,59.736656946935554,2025-04-01 10h06.04.277912 +0530,
fear_upper_blur.jpg,f,56,2,9,None,0,,,9,2,56,2,211.99873320001643,,,,,,,,,,,,,,,,211.98736909998115,211.99873320001643,213.49890580005012,213.49890580005012,213.49890580005012,213.99898200004827,214.24892360006925,214.23315880005248,None,0,,,SK17,101,2025-04-01_09h55.58.335,416_EXPERIMENT_PSYCHOPY_AU2220019_AU2220225,2024.2.4,59.736656946935554,2025-04-01 10h06.04.277912 +0530,
surprise_upper_blur.jpg,s,57,3,9,s,1,0.6755016999086365,None,9,3,57,4,214.24892360006925,,,,,,,,,,,,,,,,214.2432788000442,214.24892360006925,215.7324811000144,215.7324811000144,215.74886000005063,216.23216340004,,216.41679920000024,s,1,0.6755016999086365,None,SK17,101,2025-04-01_09h55.58.335,416_EXPERIMENT_PSYCHOPY_AU2220019_AU2220225,2024.2.4,59.736656946935554,2025-04-01 10h06.04.277912 +0530,
fear_lower_blur.jpg,f,58,4,9,f,1,0.49283729994203895,None,9,4,58,3,216.43217519996688,,,,,,,,,,,,,,,,216.42515480006114,216.43217519996688,217.93234010005835,217.93234010005835,217.93234010005835,218.43206949997693,,218.4329309000168,f,1,0.49283729994203895,None,SK17,101,2025-04-01_09h55.58.335,416_EXPERIMENT_PSYCHOPY_AU2220019_AU2220225,2024.2.4,59.736656946935554,2025-04-01 10h06.04.277912 +0530,
surprise.jpg,s,59,5,9,s,1,0.6580724000232294,None,9,5,59,1,218.44855520001147,,,,,,,,,,,,,,,,218.44273230002727,218.44855520001147,219.94945059996098,219.94945059996098,219.94945059996098,220.44880730006844,,220.616479099961,s,1,0.6580724000232294,None,SK17,101,2025-04-01_09h55.58.335,416_EXPERIMENT_PSYCHOPY_AU2220019_AU2220225,2024.2.4,59.736656946935554,2025-04-01 10h06.04.277912 +0530,
fear_upper_blur.jpg,f,60,0,10,f,1,0.5564083999488503,None,10,0,60,2,220.63188140001148,,,,,,,,,,,,,,,,220.62546450004447,220.63188140001148,222.11598400003277,222.11598400003277,222.1324777000118,222.61545569996815,,222.6834639000008,f,1,0.5564083999488503,None,SK17,101,2025-04-01_09h55.58.335,416_EXPERIMENT_PSYCHOPY_AU2220019_AU2220225,2024.2.4,59.736656946935554,2025-04-01 10h06.04.277912 +0530,
fear.jpg,f,61,1,10,s,0,0.43013990006875247,None,10,1,61,0,222.6992551999865,,,,,,,,,,,,,,,,222.69153660000302,222.6992551999865,224.19940729998052,224.19940729998052,224.19940729998052,,,224.6336262000259,s,0,0.43013990006875247,None,SK17,101,2025-04-01_09h55.58.335,416_EXPERIMENT_PSYCHOPY_AU2220019_AU2220225,2024.2.4,59.736656946935554,2025-04-01 10h06.04.277912 +0530,
fear_lower_blur.jpg,f,62,2,10,f,1,0.6656550000188872,None,10,2,62,3,224.64861280005425,,,,,,,,,,,,,,,,224.6417192000663,224.64861280005425,226.14885730005335,226.14885730005335,226.14885730005335,226.64912479999475,,226.81661940005142,f,1,0.6656550000188872,None,SK17,101,2025-04-01_09h55.58.335,416_EXPERIMENT_PSYCHOPY_AU2220019_AU2220225,2024.2.4,59.736656946935554,2025-04-01 10h06.04.277912 +0530,
surprise.jpg,s,63,3,10,None,0,,,10,3,63,1,226.83228580001742,,,,,,,,,,,,,,,,226.82329670002218,226.83228580001742,228.3325311000226,228.3325311000226,228.3325311000226,228.8319503000239,229.08222690003458,229.06631010002457,None,0,,,SK17,101,2025-04-01_09h55.58.335,416_EXPERIMENT_PSYCHOPY_AU2220019_AU2220225,2024.2.4,59.736656946935554,2025-04-01 10h06.04.277912 +0530,
surprise_lower_blur.jpg,s,64,4,10,None,0,,,10,4,64,5,229.08222690003458,,,,,,,,,,,,,,,,229.07317510002758,229.08222690003458,230.58228720002808,230.58228720002808,230.58228720002808,231.08205570001155,231.33222590002697,231.31572559999768,None,0,,,SK17,101,2025-04-01_09h55.58.335,416_EXPERIMENT_PSYCHOPY_AU2220019_AU2220225,2024.2.4,59.736656946935554,2025-04-01 10h06.04.277912 +0530,
surprise_upper_blur.jpg,s,65,5,10,None,0,,,10,5,65,4,231.33222590002697,,,,,,,,,,,,,,,,231.32365230005234,231.33222590002697,232.8160065000411,232.8160065000411,232.83248630003072,233.31508800003212,233.56555359996855,233.54895219998434,None,0,,,SK17,101,2025-04-01_09h55.58.335,416_EXPERIMENT_PSYCHOPY_AU2220019_AU2220225,2024.2.4,59.736656946935554,2025-04-01 10h06.04.277912 +0530,
fear_upper_blur.jpg,f,66,0,11,None,0,,,11,0,66,2,233.56555359996855,,,,,,,,,,,,,,,,233.55381539999507,233.58206789998803,235.08264090004377,235.08264090004377,235.08264090004377,235.58209479996003,235.8322393000126,235.81629129999783,None,0,,,SK17,101,2025-04-01_09h55.58.335,416_EXPERIMENT_PSYCHOPY_AU2220019_AU2220225,2024.2.4,59.736656946935554,2025-04-01 10h06.04.277912 +0530,
surprise_lower_blur.jpg,s,67,1,11,None,0,,,11,1,67,5,235.8322393000126,,,,,,,,,,,,,,,,235.82433299999684,235.8322393000126,237.3323116999818,237.3323116999818,237.3323116999818,237.83169590006582,238.08172120002564,238.06575800001156,None,0,,,SK17,101,2025-04-01_09h55.58.335,416_EXPERIMENT_PSYCHOPY_AU2220019_AU2220225,2024.2.4,59.736656946935554,2025-04-01 10h06.04.277912 +0530,
surprise.jpg,s,68,2,11,None,0,,,11,2,68,1,238.08172120002564,,,,,,,,,,,,,,,,238.07549389998894,238.08172120002564,239.58222640003078,239.58222640003078,239.58222640003078,240.08188489999156,240.3322648999747,240.3169496000046,None,0,,,SK17,101,2025-04-01_09h55.58.335,416_EXPERIMENT_PSYCHOPY_AU2220019_AU2220225,2024.2.4,59.736656946935554,2025-04-01 10h06.04.277912 +0530,
fear_lower_blur.jpg,f,69,3,11,f,1,0.625086999963969,None,11,3,69,3,240.3322648999747,,,,,,,,,,,,,,,,240.32633269997314,240.3322648999747,241.83254980004858,241.83254980004858,241.83254980004858,242.33215510006994,,242.46631200006232,f,1,0.625086999963969,None,SK17,101,2025-04-01_09h55.58.335,416_EXPERIMENT_PSYCHOPY_AU2220019_AU2220225,2024.2.4,59.736656946935554,2025-04-01 10h06.04.277912 +0530,
surprise_upper_blur.jpg,s,70,4,11,s,1,0.6378729999996722,None,11,4,70,4,242.4818518999964,,,,,,,,,,,,,,,,242.47263550001662,242.4818518999964,243.96561489999294,243.96561489999294,243.98233899998013,244.46554500004277,,244.61722210003063,s,1,0.6378729999996722,None,SK17,101,2025-04-01_09h55.58.335,416_EXPERIMENT_PSYCHOPY_AU2220019_AU2220225,2024.2.4,59.736656946935554,2025-04-01 10h06.04.277912 +0530,
fear.jpg,f,71,5,11,f,1,0.5900037001119927,None,11,5,71,0,244.63248140003998,,,,,,,,,,,,,,,,244.62833850004245,244.63248140003998,246.13221489998978,246.13221489998978,246.13221489998978,246.63180820003618,,246.73305100004654,f,1,0.5900037001119927,None,SK17,101,2025-04-01_09h55.58.335,416_EXPERIMENT_PSYCHOPY_AU2220019_AU2220225,2024.2.4,59.736656946935554,2025-04-01 10h06.04.277912 +0530,
fear_lower_blur.jpg,f,72,0,12,f,1,0.5959144000662491,None,12,0,72,3,246.7490466000745,,,,,,,,,,,,,,,,246.7426532000536,246.7490466000745,248.24914209998678,248.24914209998678,248.24914209998678,248.74851720000152,,248.84928720002063,f,1,0.5959144000662491,None,SK17,101,2025-04-01_09h55.58.335,416_EXPERIMENT_PSYCHOPY_AU2220019_AU2220225,2024.2.4,59.736656946935554,2025-04-01 10h06.04.277912 +0530,
fear.jpg,f,73,1,12,f,1,0.5343636999605224,None,12,1,73,0,248.8658137000166,,,,,,,,,,,,,,,,248.85449230007362,248.8658137000166,250.34876940003596,250.34876940003596,250.36520160001237,250.84852960007265,,250.90070690005086,f,1,0.5343636999605224,None,SK17,101,2025-04-01_09h55.58.335,416_EXPERIMENT_PSYCHOPY_AU2220019_AU2220225,2024.2.4,59.736656946935554,2025-04-01 10h06.04.277912 +0530,
surprise.jpg,s,74,2,12,s,1,0.56897890008986,None,12,2,74,1,250.91574229998514,,,,,,,,,,,,,,,,250.90656959998887,250.91574229998514,252.41570919996593,252.41570919996593,252.41570919996593,252.91526509996038,,252.99963249999564,s,1,0.56897890008986,None,SK17,101,2025-04-01_09h55.58.335,416_EXPERIMENT_PSYCHOPY_AU2220019_AU2220225,2024.2.4,59.736656946935554,2025-04-01 10h06.04.277912 +0530,
surprise_lower_blur.jpg,s,75,3,12,s,1,0.6678303999360651,None,12,3,75,5,253.015366800013,,,,,,,,,,,,,,,,253.0065639000386,253.015366800013,254.49932120006997,254.49932120006997,254.51567320001777,254.9988443000475,,255.18280010006856,s,1,0.6678303999360651,None,SK17,101,2025-04-01_09h55.58.335,416_EXPERIMENT_PSYCHOPY_AU2220019_AU2220225,2024.2.4,59.736656946935554,2025-04-01 10h06.04.277912 +0530,
surprise_upper_blur.jpg,s,76,4,12,None,0,,,12,4,76,4,255.1986030000262,,,,,,,,,,,,,,,,255.1894067999674,255.1986030000262,256.6822647000663,256.6822647000663,256.6988601000048,257.1820517000742,257.4322647000663,257.4169058999978,None,0,,,SK17,101,2025-04-01_09h55.58.335,416_EXPERIMENT_PSYCHOPY_AU2220019_AU2220225,2024.2.4,59.736656946935554,2025-04-01 10h06.04.277912 +0530,
fear_upper_blur.jpg,f,77,5,12,f,1,0.56851079990156,None,12,5,77,2,257.4322647000663,,,,,,,,,,,,,,,,257.4260150999762,257.4322647000663,258.9326321000699,258.9326321000699,258.9326321000699,259.43278899998404,,259.5169719000114,f,1,0.56851079990156,None,SK17,101,2025-04-01_09h55.58.335,416_EXPERIMENT_PSYCHOPY_AU2220019_AU2220225,2024.2.4,59.736656946935554,2025-04-01 10h06.04.277912 +0530,
surprise_upper_blur.jpg,s,78,0,13,None,0,,,13,0,78,4,259.5325545000378,,,,,,,,,,,,,,,,259.5245607000543,259.5325545000378,261.03297449997626,261.03297449997626,261.03297449997626,261.5327884000726,261.7825382000301,261.7664774999721,None,0,,,SK17,101,2025-04-01_09h55.58.335,416_EXPERIMENT_PSYCHOPY_AU2220019_AU2220225,2024.2.4,59.736656946935554,2025-04-01 10h06.04.277912 +0530,
surprise_lower_blur.jpg,s,79,1,13,f,0,0.5525546999415383,None,13,1,79,5,261.7825382000301,,,,,,,,,,,,,,,,261.7757332000183,261.7825382000301,263.28264700004365,263.28264700004365,263.28264700004365,263.7826327000512,,263.849992500036,f,0,0.5525546999415383,None,SK17,101,2025-04-01_09h55.58.335,416_EXPERIMENT_PSYCHOPY_AU2220019_AU2220225,2024.2.4,59.736656946935554,2025-04-01 10h06.04.277912 +0530,
surprise.jpg,s,80,2,13,s,1,0.6026292000897229,None,13,2,80,1,263.86631569999736,,,,,,,,,,,,,,,,263.8576064000372,263.86631569999736,265.34936170000583,265.34936170000583,265.3659493000014,265.84940100007225,,265.9676812000107,s,1,0.6026292000897229,None,SK17,101,2025-04-01_09h55.58.335,416_EXPERIMENT_PSYCHOPY_AU2220019_AU2220225,2024.2.4,59.736656946935554,2025-04-01 10h06.04.277912 +0530,
fear.jpg,f,81,3,13,None,0,,,13,3,81,0,265.9825952000683,,,,,,,,,,,,,,,,265.97764569998253,265.9825952000683,267.4828814000357,267.4828814000357,267.4828814000357,267.9827998999972,268.23302769998554,268.2170827999944,None,0,,,SK17,101,2025-04-01_09h55.58.335,416_EXPERIMENT_PSYCHOPY_AU2220019_AU2220225,2024.2.4,59.736656946935554,2025-04-01 10h06.04.277912 +0530,
fear_lower_blur.jpg,f,82,4,13,f,1,0.7100659999996424,None,13,4,82,3,268.23302769998554,,,,,,,,,,,,,,,,268.2253004000522,268.23302769998554,269.7325685999822,269.7325685999822,269.7325685999822,270.23310319997836,,270.44986569997855,f,1,0.7100659999996424,None,SK17,101,2025-04-01_09h55.58.335,416_EXPERIMENT_PSYCHOPY_AU2220019_AU2220225,2024.2.4,59.736656946935554,2025-04-01 10h06.04.277912 +0530,
fear_upper_blur.jpg,f,83,5,13,None,0,,,13,5,83,2,270.466471599997,,,,,,,,,,,,,,,,270.45706839999184,270.466471599997,271.96583590004593,271.96583590004593,271.96583590004593,272.46569480001926,272.715798899997,272.6998441000469,None,0,,,SK17,101,2025-04-01_09h55.58.335,416_EXPERIMENT_PSYCHOPY_AU2220019_AU2220225,2024.2.4,59.736656946935554,2025-04-01 10h06.04.277912 +0530,
fear_lower_blur.jpg,f,84,0,14,None,0,,,14,0,84,3,272.715798899997,,,,,,,,,,,,,,,,272.706476100022,272.715798899997,274.2162660000613,274.2162660000613,274.2162660000613,274.7157314000651,274.96626350004226,274.94975619995967,None,0,,,SK17,101,2025-04-01_09h55.58.335,416_EXPERIMENT_PSYCHOPY_AU2220019_AU2220225,2024.2.4,59.736656946935554,2025-04-01 10h06.04.277912 +0530,
surprise_upper_blur.jpg,s,85,1,14,s,1,0.6880095999222249,None,14,1,85,4,274.96626350004226,,,,,,,,,,,,,,,,274.9563173999777,274.96626350004226,276.4492083999794,276.4492083999794,276.46600839996245,276.94938500004355,,277.1501969000092,s,1,0.6880095999222249,None,SK17,101,2025-04-01_09h55.58.335,416_EXPERIMENT_PSYCHOPY_AU2220019_AU2220225,2024.2.4,59.736656946935554,2025-04-01 10h06.04.277912 +0530,
surprise_lower_blur.jpg,s,86,2,14,f,0,0.5117966999532655,None,14,2,86,5,277.16576010000426,,,,,,,,,,,,,,,,277.159432800021,277.16576010000426,278.6499321999727,278.6499321999727,278.666584599996,279.14977660006844,,279.16708200005814,f,0,0.5117966999532655,None,SK17,101,2025-04-01_09h55.58.335,416_EXPERIMENT_PSYCHOPY_AU2220019_AU2220225,2024.2.4,59.736656946935554,2025-04-01 10h06.04.277912 +0530,
surprise.jpg,s,87,3,14,None,0,,,14,3,87,1,279.18278280005325,,,,,,,,,,,,,,,,279.1766448999988,279.18278280005325,280.6833922000369,280.6833922000369,280.6833922000369,281.18269819999114,281.4324800000759,281.4172246999806,None,0,,,SK17,101,2025-04-01_09h55.58.335,416_EXPERIMENT_PSYCHOPY_AU2220019_AU2220225,2024.2.4,59.736656946935554,2025-04-01 10h06.04.277912 +0530,
fear_upper_blur.jpg,f,88,4,14,None,0,,,14,4,88,2,281.4324800000759,,,,,,,,,,,,,,,,281.4243586000521,281.4324800000759,282.93262159998994,282.93262159998994,282.93262159998994,283.4326127000386,283.6827748999931,283.66716269997414,None,0,,,SK17,101,2025-04-01_09h55.58.335,416_EXPERIMENT_PSYCHOPY_AU2220019_AU2220225,2024.2.4,59.736656946935554,2025-04-01 10h06.04.277912 +0530,
fear.jpg,f,89,5,14,None,0,,,14,5,89,0,283.6827748999931,,,,,,,,,,,,,,,,283.67701400001533,283.6827748999931,285.18263070005924,285.18263070005924,285.18263070005924,285.68242650001775,285.93246499996167,285.9166542000603,None,0,,,SK17,101,2025-04-01_09h55.58.335,416_EXPERIMENT_PSYCHOPY_AU2220019_AU2220225,2024.2.4,59.736656946935554,2025-04-01 10h06.04.277912 +0530,
fear.jpg,f,90,0,15,None,0,,,15,0,90,0,285.93246499996167,,,,,,,,,,,,,,,,285.92415039998014,285.93246499996167,287.4330450000707,287.4330450000707,287.4330450000707,287.9320000000298,288.1819984000176,288.16623750003055,None,0,,,SK17,101,2025-04-01_09h55.58.335,416_EXPERIMENT_PSYCHOPY_AU2220019_AU2220225,2024.2.4,59.736656946935554,2025-04-01 10h06.04.277912 +0530,
surprise_lower_blur.jpg,s,91,1,15,None,0,,,15,1,91,5,288.1819984000176,,,,,,,,,,,,,,,,288.17165959998965,288.1819984000176,289.6823288999731,289.6823288999731,289.6823288999731,290.1819905000739,290.43228860001545,290.41585660004057,None,0,,,SK17,101,2025-04-01_09h55.58.335,416_EXPERIMENT_PSYCHOPY_AU2220019_AU2220225,2024.2.4,59.736656946935554,2025-04-01 10h06.04.277912 +0530,
surprise_upper_blur.jpg,s,92,2,15,None,0,,,15,2,92,4,290.43228860001545,,,,,,,,,,,,,,,,290.42242800001986,290.43228860001545,291.932251399965,291.932251399965,291.932251399965,292.4318384999642,292.6823155999882,292.66585280001163,None,0,,,SK17,101,2025-04-01_09h55.58.335,416_EXPERIMENT_PSYCHOPY_AU2220019_AU2220225,2024.2.4,59.736656946935554,2025-04-01 10h06.04.277912 +0530,
fear_lower_blur.jpg,f,93,3,15,f,1,0.7165404000552371,None,15,3,93,3,292.6823155999882,,,,,,,,,,,,,,,,292.67506030004006,292.6823155999882,294.18222309998237,294.18222309998237,294.18222309998237,294.6822300000349,,294.9018267999636,f,1,0.7165404000552371,None,SK17,101,2025-04-01_09h55.58.335,416_EXPERIMENT_PSYCHOPY_AU2220019_AU2220225,2024.2.4,59.736656946935554,2025-04-01 10h06.04.277912 +0530,
fear_upper_blur.jpg,f,94,4,15,f,1,0.6584397000260651,None,15,4,94,2,294.9156374000013,,,,,,,,,,,,,,,,294.9079046000261,294.9156374000013,296.4156252000248,296.4156252000248,296.4156252000248,296.915497399983,,297.0850271000527,f,1,0.6584397000260651,None,SK17,101,2025-04-01_09h55.58.335,416_EXPERIMENT_PSYCHOPY_AU2220019_AU2220225,2024.2.4,59.736656946935554,2025-04-01 10h06.04.277912 +0530,
surprise.jpg,s,95,5,15,s,1,0.6914405999705195,None,15,5,95,1,297.0985880000517,,,,,,,,,,,,,,,,297.08994480001274,297.0985880000517,298.5995285999961,298.5995285999961,298.5995285999961,299.0985973000061,,299.29977240005974,s,1,0.6914405999705195,None,SK17,101,2025-04-01_09h55.58.335,416_EXPERIMENT_PSYCHOPY_AU2220019_AU2220225,2024.2.4,59.736656946935554,2025-04-01 10h06.04.277912 +0530,
surprise_lower_blur.jpg,s,96,0,16,None,0,,,16,0,96,5,299.31531720003113,,,,,,,,,,,,,,,,299.3087782000657,299.31531720003113,300.8156438000733,300.8156438000733,300.8156438000733,301.31547829997726,301.5658139999723,301.54931390006095,None,0,,,SK17,101,2025-04-01_09h55.58.335,416_EXPERIMENT_PSYCHOPY_AU2220019_AU2220225,2024.2.4,59.736656946935554,2025-04-01 10h06.04.277912 +0530,
fear_lower_blur.jpg,f,97,1,16,None,0,,,16,1,97,3,301.5658139999723,,,,,,,,,,,,,,,,301.5555483000353,301.5658139999723,303.0653607000131,303.0653607000131,303.0653607000131,303.5654202000005,303.8154000999639,303.79938450001646,None,0,,,SK17,101,2025-04-01_09h55.58.335,416_EXPERIMENT_PSYCHOPY_AU2220019_AU2220225,2024.2.4,59.736656946935554,2025-04-01 10h06.04.277912 +0530,
fear_upper_blur.jpg,f,98,2,16,None,0,,,16,2,98,2,303.8154000999639,,,,,,,,,,,,,,,,303.80427890003193,303.8154000999639,305.3153957000468,305.3153957000468,305.3153957000468,305.8156133000739,306.06544500007294,306.049218500033,None,0,,,SK17,101,2025-04-01_09h55.58.335,416_EXPERIMENT_PSYCHOPY_AU2220019_AU2220225,2024.2.4,59.736656946935554,2025-04-01 10h06.04.277912 +0530,
fear.jpg,f,99,3,16,None,0,,,16,3,99,0,306.06544500007294,,,,,,,,,,,,,,,,306.0540471000131,306.06544500007294,307.5662134999875,307.5662134999875,307.5662134999875,308.06549329997506,,308.3156257000519,None,0,,,SK17,101,2025-04-01_09h55.58.335,416_EXPERIMENT_PSYCHOPY_AU2220019_AU2220225,2024.2.4,59.736656946935554,2025-04-01 10h06.04.277912 +0530,
surprise_upper_blur.jpg,s,100,4,16,None,0,,,16,4,100,4,308.33217730000615,,,,,,,,,,,,,,,,308.3233300000429,308.33217730000615,309.8159228999866,309.8159228999866,309.8324444000609,310.3155346000567,310.56554850004613,310.5488802000182,None,0,,,SK17,101,2025-04-01_09h55.58.335,416_EXPERIMENT_PSYCHOPY_AU2220019_AU2220225,2024.2.4,59.736656946935554,2025-04-01 10h06.04.277912 +0530,
surprise.jpg,s,101,5,16,s,1,0.691394199966453,None,16,5,101,1,310.56554850004613,,,,,,,,,,,,,,,,310.55411300004926,310.56554850004613,312.06595129997004,312.06595129997004,312.06595129997004,312.56563770002685,,312.7663692999631,s,1,0.691394199966453,None,SK17,101,2025-04-01_09h55.58.335,416_EXPERIMENT_PSYCHOPY_AU2220019_AU2220225,2024.2.4,59.736656946935554,2025-04-01 10h06.04.277912 +0530,
surprise_lower_blur.jpg,s,102,0,17,f,0,0.3768547000363469,None,17,0,102,5,312.78219389996957,,,,,,,,,,,,,,,,312.770936200046,312.78219389996957,314.2655094000511,314.2655094000511,314.28256129997317,,,314.65007360000163,f,0,0.3768547000363469,None,SK17,101,2025-04-01_09h55.58.335,416_EXPERIMENT_PSYCHOPY_AU2220019_AU2220225,2024.2.4,59.736656946935554,2025-04-01 10h06.04.277912 +0530,
surprise.jpg,s,103,1,17,s,1,0.5904207000276074,None,17,1,103,1,314.6653928000014,,,,,,,,,,,,,,,,314.65515000000596,314.6653928000014,316.1657792000333,316.1657792000333,316.1657792000333,316.6651880000718,,316.76652449998073,s,1,0.5904207000276074,None,SK17,101,2025-04-01_09h55.58.335,416_EXPERIMENT_PSYCHOPY_AU2220019_AU2220225,2024.2.4,59.736656946935554,2025-04-01 10h06.04.277912 +0530,
surprise_upper_blur.jpg,s,104,2,17,s,1,0.5432864000322297,None,17,2,104,4,316.78229130001273,,,,,,,,,,,,,,,,316.77756920002867,316.78229130001273,318.2824869999895,318.2824869999895,318.2824869999895,318.78197040001396,,318.83266209997237,s,1,0.5432864000322297,None,SK17,101,2025-04-01_09h55.58.335,416_EXPERIMENT_PSYCHOPY_AU2220019_AU2220225,2024.2.4,59.736656946935554,2025-04-01 10h06.04.277912 +0530,
fear_lower_blur.jpg,f,105,3,17,f,1,0.5319456000579521,None,17,3,105,3,318.8485432000598,,,,,,,,,,,,,,,,318.84159389999695,318.8485432000598,320.3322948999703,320.3322948999703,320.348714999971,320.83186120004393,,320.8664385000011,f,1,0.5319456000579521,None,SK17,101,2025-04-01_09h55.58.335,416_EXPERIMENT_PSYCHOPY_AU2220019_AU2220225,2024.2.4,59.736656946935554,2025-04-01 10h06.04.277912 +0530,
fear_upper_blur.jpg,f,106,4,17,None,0,,,17,4,106,2,320.8822888999712,,,,,,,,,,,,,,,,320.8715631000232,320.8822888999712,322.38236759998836,322.38236759998836,322.38236759998836,322.88185230002273,323.1322616999969,323.11612300004344,None,0,,,SK17,101,2025-04-01_09h55.58.335,416_EXPERIMENT_PSYCHOPY_AU2220019_AU2220225,2024.2.4,59.736656946935554,2025-04-01 10h06.04.277912 +0530,
fear.jpg,f,107,5,17,None,0,,,17,5,107,0,323.1322616999969,,,,,,,,,,,,,,,,323.1213235000614,323.1322616999969,324.6160608000355,324.6160608000355,324.63254460005555,325.1156255999813,325.3653934999602,325.3490856999997,None,0,,,SK17,101,2025-04-01_09h55.58.335,416_EXPERIMENT_PSYCHOPY_AU2220019_AU2220225,2024.2.4,59.736656946935554,2025-04-01 10h06.04.277912 +0530,
surprise_lower_blur.jpg,s,108,0,18,None,0,,,18,0,108,5,325.3653934999602,,,,,,,,,,,,,,,,325.3539638000075,325.3824893999845,326.8824100999627,326.8824100999627,326.8824100999627,327.3820273000747,327.6323068999918,327.61610300000757,None,0,,,SK17,101,2025-04-01_09h55.58.335,416_EXPERIMENT_PSYCHOPY_AU2220019_AU2220225,2024.2.4,59.736656946935554,2025-04-01 10h06.04.277912 +0530,
surprise_upper_blur.jpg,s,109,1,18,None,0,,,18,1,109,4,327.6323068999918,,,,,,,,,,,,,,,,327.6229558000341,327.6323068999918,329.13253729999997,329.13253729999997,329.13253729999997,329.6318262000568,329.88217490003444,329.8659283000743,None,0,,,SK17,101,2025-04-01_09h55.58.335,416_EXPERIMENT_PSYCHOPY_AU2220019_AU2220225,2024.2.4,59.736656946935554,2025-04-01 10h06.04.277912 +0530,
surprise.jpg,s,110,2,18,s,1,0.6897066000383347,None,18,2,110,1,329.88217490003444,,,,,,,,,,,,,,,,329.8718521000119,329.88217490003444,331.36555560003035,331.36555560003035,331.38244549999945,331.8651518999832,,332.06605630007107,s,1,0.6897066000383347,None,SK17,101,2025-04-01_09h55.58.335,416_EXPERIMENT_PSYCHOPY_AU2220019_AU2220225,2024.2.4,59.736656946935554,2025-04-01 10h06.04.277912 +0530,
fear_upper_blur.jpg,f,111,3,18,f,1,0.5193823999725282,None,18,3,111,2,332.0821922000032,,,,,,,,,,,,,,,,332.0707573000109,332.0821922000032,333.58214600000065,333.58214600000065,333.58214600000065,334.0819347000215,,334.1167398999678,f,1,0.5193823999725282,None,SK17,101,2025-04-01_09h55.58.335,416_EXPERIMENT_PSYCHOPY_AU2220019_AU2220225,2024.2.4,59.736656946935554,2025-04-01 10h06.04.277912 +0530,
fear.jpg,f,112,4,18,f,1,0.5914635999361053,None,18,4,112,0,334.13231640006416,,,,,,,,,,,,,,,,334.1246494000079,334.13231640006416,335.63248460006434,335.63248460006434,335.63248460006434,336.13236859999597,,336.23299639998004,f,1,0.5914635999361053,None,SK17,101,2025-04-01_09h55.58.335,416_EXPERIMENT_PSYCHOPY_AU2220019_AU2220225,2024.2.4,59.736656946935554,2025-04-01 10h06.04.277912 +0530,
fear_lower_blur.jpg,f,113,5,18,s,0,0.6669178000884131,None,18,5,113,3,336.24905320000835,,,,,,,,,,,,,,,,336.24217860004865,336.24905320000835,337.7487028000178,337.7487028000178,337.7487028000178,338.24894239997957,,338.4175430999603,s,0,0.6669178000884131,None,SK17,101,2025-04-01_09h55.58.335,416_EXPERIMENT_PSYCHOPY_AU2220019_AU2220225,2024.2.4,59.736656946935554,2025-04-01 10h06.04.277912 +0530,
surprise.jpg,s,114,0,19,s,1,0.6840782000217587,None,19,0,114,1,338.43217090005055,,,,,,,,,,,,,,,,338.427290600026,338.43217090005055,339.932353500044,339.932353500044,339.932353500044,340.43212899996433,,340.63306799996644,s,1,0.6840782000217587,None,SK17,101,2025-04-01_09h55.58.335,416_EXPERIMENT_PSYCHOPY_AU2220019_AU2220225,2024.2.4,59.736656946935554,2025-04-01 10h06.04.277912 +0530,
fear.jpg,f,115,1,19,s,0,0.6178351999260485,None,19,1,115,0,340.64968190004583,,,,,,,,,,,,,,,,340.6402902000118,340.64968190004583,342.13252210000064,342.13252210000064,342.14869659999385,342.6323214999866,,342.7661679000594,s,0,0.6178351999260485,None,SK17,101,2025-04-01_09h55.58.335,416_EXPERIMENT_PSYCHOPY_AU2220019_AU2220225,2024.2.4,59.736656946935554,2025-04-01 10h06.04.277912 +0530,
fear_lower_blur.jpg,f,116,2,19,None,0,,,19,2,116,3,342.7821202999912,,,,,,,,,,,,,,,,342.7709460000042,342.7821202999912,344.2655870000599,344.2655870000599,344.2822176000336,344.7650475000264,345.0153481999878,344.9994468999794,None,0,,,SK17,101,2025-04-01_09h55.58.335,416_EXPERIMENT_PSYCHOPY_AU2220019_AU2220225,2024.2.4,59.736656946935554,2025-04-01 10h06.04.277912 +0530,
fear_upper_blur.jpg,f,117,3,19,None,0,,,19,3,117,2,345.0153481999878,,,,,,,,,,,,,,,,345.00403569999617,345.0153481999878,346.5156009000493,346.5156009000493,346.5156009000493,347.0153510000091,347.26554130006116,347.24946720001753,None,0,,,SK17,101,2025-04-01_09h55.58.335,416_EXPERIMENT_PSYCHOPY_AU2220019_AU2220225,2024.2.4,59.736656946935554,2025-04-01 10h06.04.277912 +0530,
surprise_upper_blur.jpg,s,118,4,19,s,1,0.6361017000162974,None,19,4,118,4,347.26554130006116,,,,,,,,,,,,,,,,347.2547440000344,347.26554130006116,348.7655420000665,348.7655420000665,348.7655420000665,349.26525900000706,,349.41623700002674,s,1,0.6361017000162974,None,SK17,101,2025-04-01_09h55.58.335,416_EXPERIMENT_PSYCHOPY_AU2220019_AU2220225,2024.2.4,59.736656946935554,2025-04-01 10h06.04.277912 +0530,
surprise_lower_blur.jpg,s,119,5,19,s,1,0.6341636000433937,None,19,5,119,5,349.43238200002816,,,,,,,,,,,,,,,,349.4208190999925,349.43238200002816,350.91556950006634,350.91556950006634,350.93249609996565,351.41553300002124,,351.566401100019,s,1,0.6341636000433937,None,SK17,101,2025-04-01_09h55.58.335,416_EXPERIMENT_PSYCHOPY_AU2220019_AU2220225,2024.2.4,59.736656946935554,2025-04-01 10h06.04.277912 +0530,
