stimulus_image,correct_response,thisN,thisTrialN,thisRepN,key_resp.keys,key_resp.corr,key_resp.rt,key_resp.duration,loop.thisRepN,loop.thisTrialN,loop.thisN,loop.thisIndex,thisRow.t,notes,guide.started,instructions.started,ins_resp.started,guide.stopped,ins_resp.keys,ins_resp.rt,ins_resp.duration,guide_2.started,text.started,key_resp_2.started,guide_2.stopped,key_resp_2.keys,key_resp_2.rt,key_resp_2.duration,trial.started,fixation.started,image.started,key_resp.started,fixation.stopped,image.stopped,trial.stopped,loop.key_resp.keys,loop.key_resp.corr,loop.key_resp.rt,loop.key_resp.duration,key_resp.stopped,participant,session,date,expName,psychopyVersion,frameRate,expStart,
,,,,,,,,,,,,,,,0.004800599999725819,0.022470700088888407,0.022470700088888407,29.354580800049007,space,29.31955979997292,None,,,,,,,,,,,,,,,,,,,,TV21,001,2025-04-01_14h28.58.900,416_EXPERIMENT_PSYCHOPY_AU2220019_AU2220225,2024.2.4,59.33151189039835,2025-04-01 14h33.43.307034 +0530,
,,,,,,,,,,,,,,,,,,,,,,29.354716300033033,29.361582699930295,29.361582699930295,34.94418180012144,space,5.575300399912521,None,,,,,,,,,,,,,TV21,001,2025-04-01_14h28.58.900,416_EXPERIMENT_PSYCHOPY_AU2220019_AU2220225,2024.2.4,59.33151189039835,2025-04-01 14h33.43.307034 +0530,
surprise_upper_blur.jpg,s,0,0,0,s,1,0.5858199000358582,None,0,0,0,4,35.1087692999281,,,,,,,,,,,,,,,,35.10077490005642,35.1087692999281,36.47005919995718,36.47005919995718,36.6076096999459,36.974109600065276,37.06020890013315,s,1,0.5858199000358582,None,,TV21,001,2025-04-01_14h28.58.900,416_EXPERIMENT_PSYCHOPY_AU2220019_AU2220225,2024.2.4,59.33151189039835,2025-04-01 14h33.43.307034 +0530,
fear.jpg,f,1,1,0,f,1,0.41131140012294054,None,0,1,1,0,37.08336269995198,,,,,,,,,,,,,,,,37.078148300061,37.08336269995198,38.574542900081724,38.574542900081724,38.59000450000167,,38.994830399984494,f,1,0.41131140012294054,None,,TV21,001,2025-04-01_14h28.58.900,416_EXPERIMENT_PSYCHOPY_AU2220019_AU2220225,2024.2.4,59.33151189039835,2025-04-01 14h33.43.307034 +0530,
fear_upper_blur.jpg,f,2,2,0,f,1,0.6313732999842614,None,0,2,2,2,39.014102099929005,,,,,,,,,,,,,,,,39.00911989994347,39.014102099929005,40.50848240009509,40.50848240009509,40.52473399997689,41.00876950006932,41.144513400038704,f,1,0.6313732999842614,None,,TV21,001,2025-04-01_14h28.58.900,416_EXPERIMENT_PSYCHOPY_AU2220019_AU2220225,2024.2.4,59.33151189039835,2025-04-01 14h33.43.307034 +0530,
fear_lower_blur.jpg,f,3,3,0,None,0,,,0,3,3,3,41.16597139998339,,,,,,,,,,,,,,,,41.16035769996233,41.16597139998339,42.657336300006136,42.657336300006136,42.67356800008565,43.1575122999493,43.39312839997001,None,0,,,43.41310380003415,TV21,001,2025-04-01_14h28.58.900,416_EXPERIMENT_PSYCHOPY_AU2220019_AU2220225,2024.2.4,59.33151189039835,2025-04-01 14h33.43.307034 +0530,
surprise.jpg,s,4,4,0,s,1,0.4072324000298977,None,0,4,4,1,43.41310380003415,,,,,,,,,,,,,,,,43.40792110003531,43.41310380003415,44.90880910004489,44.90880910004489,44.92495619994588,,45.326623900095,s,1,0.4072324000298977,None,,TV21,001,2025-04-01_14h28.58.900,416_EXPERIMENT_PSYCHOPY_AU2220019_AU2220225,2024.2.4,59.33151189039835,2025-04-01 14h33.43.307034 +0530,
surprise_lower_blur.jpg,s,5,5,0,f,0,0.28554489999078214,None,0,5,5,5,45.34921779995784,,,,,,,,,,,,,,,,45.34308030013926,45.34921779995784,46.841571300057694,46.841571300057694,46.8569901001174,,47.141937900101766,f,0,0.28554489999078214,None,,TV21,001,2025-04-01_14h28.58.900,416_EXPERIMENT_PSYCHOPY_AU2220019_AU2220225,2024.2.4,59.33151189039835,2025-04-01 14h33.43.307034 +0530,
surprise_lower_blur.jpg,s,6,0,1,f,0,0.4474922001827508,None,1,0,6,5,47.158121400047094,,,,,,,,,,,,,,,,47.1526581000071,47.158121400047094,48.659148700069636,48.659148700069636,48.659148700069636,,49.110355200013146,f,0,0.4474922001827508,None,,TV21,001,2025-04-01_14h28.58.900,416_EXPERIMENT_PSYCHOPY_AU2220019_AU2220225,2024.2.4,59.33151189039835,2025-04-01 14h33.43.307034 +0530,
fear.jpg,f,7,1,1,s,0,0.4406828999053687,None,1,1,7,0,49.12774319993332,,,,,,,,,,,,,,,,49.12305360008031,49.12774319993332,50.623126100050285,50.623126100050285,50.63983889995143,,51.0758803000208,s,0,0.4406828999053687,None,,TV21,001,2025-04-01_14h28.58.900,416_EXPERIMENT_PSYCHOPY_AU2220019_AU2220225,2024.2.4,59.33151189039835,2025-04-01 14h33.43.307034 +0530,
surprise_upper_blur.jpg,s,8,2,1,None,0,,,1,2,8,4,51.09282150003128,,,,,,,,,,,,,,,,51.08712160005234,51.09282150003128,52.59228330012411,52.59228330012411,52.608130499953404,53.10807850002311,53.341229600133374,None,0,,,,TV21,001,2025-04-01_14h28.58.900,416_EXPERIMENT_PSYCHOPY_AU2220019_AU2220225,2024.2.4,59.33151189039835,2025-04-01 14h33.43.307034 +0530,
fear_upper_blur.jpg,f,9,3,1,f,1,0.39786579995416105,None,1,3,9,2,53.35746800014749,,,,,,,,,,,,,,,,53.351957299979404,53.35746800014749,54.839752099942416,54.839752099942416,54.87309650005773,,55.244249399984255,f,1,0.39786579995416105,None,,TV21,001,2025-04-01_14h28.58.900,416_EXPERIMENT_PSYCHOPY_AU2220019_AU2220225,2024.2.4,59.33151189039835,2025-04-01 14h33.43.307034 +0530,
surprise.jpg,s,10,4,1,s,1,0.6834003999829292,None,1,4,10,1,55.265631600050256,,,,,,,,,,,,,,,,55.2595218999777,55.265631600050256,56.75642800005153,56.75642800005153,56.77207570010796,57.25823949999176,57.44380290014669,s,1,0.6834003999829292,None,,TV21,001,2025-04-01_14h28.58.900,416_EXPERIMENT_PSYCHOPY_AU2220019_AU2220225,2024.2.4,59.33151189039835,2025-04-01 14h33.43.307034 +0530,
fear_lower_blur.jpg,f,11,5,1,f,1,0.3725165000651032,None,1,5,11,3,57.45959230000153,,,,,,,,,,,,,,,,57.453772499924526,57.45959230000153,58.95900969998911,58.95900969998911,58.97546560014598,,59.3413514001295,f,1,0.3725165000651032,None,,TV21,001,2025-04-01_14h28.58.900,416_EXPERIMENT_PSYCHOPY_AU2220019_AU2220225,2024.2.4,59.33151189039835,2025-04-01 14h33.43.307034 +0530,
fear_upper_blur.jpg,f,12,0,2,s,0,0.3501129001379013,None,2,0,12,2,59.35980290011503,,,,,,,,,,,,,,,,59.35378669993952,59.35980290011503,60.8423071000725,60.8423071000725,60.858405200066045,,61.210319800069556,s,0,0.3501129001379013,None,,TV21,001,2025-04-01_14h28.58.900,416_EXPERIMENT_PSYCHOPY_AU2220019_AU2220225,2024.2.4,59.33151189039835,2025-04-01 14h33.43.307034 +0530,
surprise.jpg,s,13,1,2,s,1,0.7158057000488043,None,2,1,13,1,61.22952930000611,,,,,,,,,,,,,,,,61.224446499953046,61.22952930000611,62.72502900008112,62.72502900008112,62.74179350002669,63.22519010002725,63.445048100082204,s,1,0.7158057000488043,None,,TV21,001,2025-04-01_14h28.58.900,416_EXPERIMENT_PSYCHOPY_AU2220019_AU2220225,2024.2.4,59.33151189039835,2025-04-01 14h33.43.307034 +0530,
fear_lower_blur.jpg,f,14,2,2,f,1,0.3238824000582099,None,2,2,14,3,63.465391600038856,,,,,,,,,,,,,,,,63.45934020006098,63.465391600038856,64.95879069995135,64.95879069995135,64.97501259995624,,65.2938981000334,f,1,0.3238824000582099,None,,TV21,001,2025-04-01_14h28.58.900,416_EXPERIMENT_PSYCHOPY_AU2220019_AU2220225,2024.2.4,59.33151189039835,2025-04-01 14h33.43.307034 +0530,
surprise_lower_blur.jpg,s,15,3,2,s,1,0.6121759000234306,None,2,3,15,5,65.31307779997587,,,,,,,,,,,,,,,,65.30749869998544,65.31307779997587,66.80671919998713,66.80671919998713,66.82335099996999,67.30560169997625,67.42303960002027,s,1,0.6121759000234306,None,,TV21,001,2025-04-01_14h28.58.900,416_EXPERIMENT_PSYCHOPY_AU2220019_AU2220225,2024.2.4,59.33151189039835,2025-04-01 14h33.43.307034 +0530,
surprise_upper_blur.jpg,s,16,4,2,f,0,0.47792540001682937,None,2,4,16,4,67.44052379997447,,,,,,,,,,,,,,,,67.43455040012486,67.44052379997447,68.92217419994995,68.92217419994995,68.94746110006236,69.42313230014406,69.40699280006811,f,0,0.47792540001682937,None,,TV21,001,2025-04-01_14h28.58.900,416_EXPERIMENT_PSYCHOPY_AU2220019_AU2220225,2024.2.4,59.33151189039835,2025-04-01 14h33.43.307034 +0530,
fear.jpg,f,17,5,2,f,1,0.5034762001596391,None,2,5,17,0,69.42313230014406,,,,,,,,,,,,,,,,69.41770730004646,69.42313230014406,70.91589709999971,70.91589709999971,70.9317038001027,71.41508740000427,71.43325860006735,f,1,0.5034762001596391,None,,TV21,001,2025-04-01_14h28.58.900,416_EXPERIMENT_PSYCHOPY_AU2220019_AU2220225,2024.2.4,59.33151189039835,2025-04-01 14h33.43.307034 +0530,
surprise_upper_blur.jpg,s,18,0,3,s,1,0.3993053000885993,None,3,0,18,4,71.44999579992145,,,,,,,,,,,,,,,,71.44305120012723,71.44999579992145,72.93259939993732,72.93259939993732,72.94930250011384,,73.33550480008125,s,1,0.3993053000885993,None,,TV21,001,2025-04-01_14h28.58.900,416_EXPERIMENT_PSYCHOPY_AU2220019_AU2220225,2024.2.4,59.33151189039835,2025-04-01 14h33.43.307034 +0530,
fear_upper_blur.jpg,f,19,1,3,f,1,0.5639861000236124,None,3,1,19,2,73.35274929995649,,,,,,,,,,,,,,,,73.34723119996488,73.35274929995649,74.84721500007436,74.84721500007436,74.86399139999412,75.34741370007396,75.4162260000594,f,1,0.5639861000236124,None,,TV21,001,2025-04-01_14h28.58.900,416_EXPERIMENT_PSYCHOPY_AU2220019_AU2220225,2024.2.4,59.33151189039835,2025-04-01 14h33.43.307034 +0530,
fear_lower_blur.jpg,f,20,2,3,s,0,0.43562620016746223,None,3,2,20,3,75.43294359999709,,,,,,,,,,,,,,,,75.42761280015111,75.43294359999709,76.91672670003027,76.91672670003027,76.93296530004591,,77.36606060015038,s,0,0.43562620016746223,None,,TV21,001,2025-04-01_14h28.58.900,416_EXPERIMENT_PSYCHOPY_AU2220019_AU2220225,2024.2.4,59.33151189039835,2025-04-01 14h33.43.307034 +0530,
surprise_lower_blur.jpg,s,21,3,3,s,1,0.6058153999038041,None,3,3,21,5,77.3828195000533,,,,,,,,,,,,,,,,77.37752839992754,77.3828195000533,78.88061049999669,78.88061049999669,78.89744460000657,79.3810586000327,79.4994149999693,s,1,0.6058153999038041,None,,TV21,001,2025-04-01_14h28.58.900,416_EXPERIMENT_PSYCHOPY_AU2220019_AU2220225,2024.2.4,59.33151189039835,2025-04-01 14h33.43.307034 +0530,
fear.jpg,f,22,4,3,f,1,0.5427857998292893,None,3,4,22,0,79.51693230005912,,,,,,,,,,,,,,,,79.51185459992848,79.51693230005912,80.9993475000374,80.9993475000374,81.01632890012115,81.51458350010216,81.55223420006223,f,1,0.5427857998292893,None,,TV21,001,2025-04-01_14h28.58.900,416_EXPERIMENT_PSYCHOPY_AU2220019_AU2220225,2024.2.4,59.33151189039835,2025-04-01 14h33.43.307034 +0530,
surprise.jpg,s,23,5,3,s,1,0.49773030006326735,None,3,5,23,1,81.57172430003993,,,,,,,,,,,,,,,,81.56696570012718,81.57172430003993,83.06582020013593,83.06582020013593,83.08254550001584,83.58653969992884,83.56641470012255,s,1,0.49773030006326735,None,,TV21,001,2025-04-01_14h28.58.900,416_EXPERIMENT_PSYCHOPY_AU2220019_AU2220225,2024.2.4,59.33151189039835,2025-04-01 14h33.43.307034 +0530,
fear.jpg,f,24,0,4,f,1,0.48021249985322356,None,4,0,24,0,83.58653969992884,,,,,,,,,,,,,,,,83.5806899999734,83.58653969992884,85.08088449994102,85.08088449994102,85.09727789997123,85.58773920009844,85.56677139992826,f,1,0.48021249985322356,None,,TV21,001,2025-04-01_14h28.58.900,416_EXPERIMENT_PSYCHOPY_AU2220019_AU2220225,2024.2.4,59.33151189039835,2025-04-01 14h33.43.307034 +0530,
fear_upper_blur.jpg,f,25,1,4,s,0,0.4402926000766456,None,4,1,25,2,85.58773920009844,,,,,,,,,,,,,,,,85.58268310013227,85.58773920009844,87.0807133000344,87.0807133000344,87.09743930003606,,87.53517120005563,s,0,0.4402926000766456,None,,TV21,001,2025-04-01_14h28.58.900,416_EXPERIMENT_PSYCHOPY_AU2220019_AU2220225,2024.2.4,59.33151189039835,2025-04-01 14h33.43.307034 +0530,
surprise.jpg,s,26,2,4,s,1,0.6456588001456112,None,4,2,26,1,87.55512750009075,,,,,,,,,,,,,,,,87.54931090003811,87.55512750009075,89.05050739995204,89.05050739995204,89.06447979994118,89.56419629999436,89.6993978000246,s,1,0.6456588001456112,None,,TV21,001,2025-04-01_14h28.58.900,416_EXPERIMENT_PSYCHOPY_AU2220019_AU2220225,2024.2.4,59.33151189039835,2025-04-01 14h33.43.307034 +0530,
surprise_lower_blur.jpg,s,27,3,4,f,0,0.5944628999568522,None,4,3,27,5,89.71748580015264,,,,,,,,,,,,,,,,89.71154249995016,89.71748580015264,91.2139680001419,91.2139680001419,91.23070119996555,91.71418879996054,91.81911560008302,f,0,0.5944628999568522,None,,TV21,001,2025-04-01_14h28.58.900,416_EXPERIMENT_PSYCHOPY_AU2220019_AU2220225,2024.2.4,59.33151189039835,2025-04-01 14h33.43.307034 +0530,
surprise_upper_blur.jpg,s,28,4,4,None,0,,,4,4,28,4,91.83959380001761,,,,,,,,,,,,,,,,91.83427240001038,91.83959380001761,93.33292600000277,93.33292600000277,93.34948480012827,93.84813709999435,94.08111810008995,None,0,,,,TV21,001,2025-04-01_14h28.58.900,416_EXPERIMENT_PSYCHOPY_AU2220019_AU2220225,2024.2.4,59.33151189039835,2025-04-01 14h33.43.307034 +0530,
fear_lower_blur.jpg,f,29,5,4,f,1,0.5453055000398308,None,4,5,29,3,94.1013237000443,,,,,,,,,,,,,,,,94.09669140004553,94.1013237000443,95.58282050001435,95.58282050001435,95.61672920011915,96.08279879996553,96.13456479995511,f,1,0.5453055000398308,None,,TV21,001,2025-04-01_14h28.58.900,416_EXPERIMENT_PSYCHOPY_AU2220019_AU2220225,2024.2.4,59.33151189039835,2025-04-01 14h33.43.307034 +0530,
fear_lower_blur.jpg,f,30,0,5,f,1,0.5184498999733478,None,5,0,30,3,96.1534855000209,,,,,,,,,,,,,,,,96.14822530001402,96.1534855000209,97.64955909992568,97.64955909992568,97.66620540013537,98.14923919993453,98.18474870012142,f,1,0.5184498999733478,None,,TV21,001,2025-04-01_14h28.58.900,416_EXPERIMENT_PSYCHOPY_AU2220019_AU2220225,2024.2.4,59.33151189039835,2025-04-01 14h33.43.307034 +0530,
fear.jpg,f,31,1,5,f,1,0.6341132998932153,None,5,1,31,0,98.20404050010256,,,,,,,,,,,,,,,,98.19811609992757,98.20404050010256,99.69886819995008,99.69886819995008,99.71550159994513,100.19853579998016,100.33621779992245,f,1,0.6341132998932153,None,,TV21,001,2025-04-01_14h28.58.900,416_EXPERIMENT_PSYCHOPY_AU2220019_AU2220225,2024.2.4,59.33151189039835,2025-04-01 14h33.43.307034 +0530,
surprise_upper_blur.jpg,s,32,2,5,s,1,0.6836890999693424,None,5,2,32,4,100.35262800008059,,,,,,,,,,,,,,,,100.34697670000605,100.35262800008059,101.8480555000715,101.8480555000715,101.86438179994002,102.34807229996659,102.54921460011974,s,1,0.6836890999693424,None,,TV21,001,2025-04-01_14h28.58.900,416_EXPERIMENT_PSYCHOPY_AU2220019_AU2220225,2024.2.4,59.33151189039835,2025-04-01 14h33.43.307034 +0530,
surprise_lower_blur.jpg,s,33,3,5,s,1,0.6558183000888675,None,5,3,33,5,102.56679820013233,,,,,,,,,,,,,,,,102.55873690010048,102.56679820013233,104.06630329997279,104.06630329997279,104.06630329997279,104.56637550005689,104.73488160013221,s,1,0.6558183000888675,None,,TV21,001,2025-04-01_14h28.58.900,416_EXPERIMENT_PSYCHOPY_AU2220019_AU2220225,2024.2.4,59.33151189039835,2025-04-01 14h33.43.307034 +0530,
fear_upper_blur.jpg,f,34,4,5,f,1,0.49129909998737276,None,5,4,34,2,104.75393710006028,,,,,,,,,,,,,,,,104.74792110011913,104.75393710006028,106.25000880006701,106.25000880006701,106.26678510010242,106.76644519995898,106.74940660013817,f,1,0.49129909998737276,None,,TV21,001,2025-04-01_14h28.58.900,416_EXPERIMENT_PSYCHOPY_AU2220019_AU2220225,2024.2.4,59.33151189039835,2025-04-01 14h33.43.307034 +0530,
surprise.jpg,s,35,5,5,s,1,0.4290678999386728,None,5,5,35,1,106.76644519995898,,,,,,,,,,,,,,,,106.76016960013658,106.76644519995898,108.26419150014408,108.26419150014408,108.28079140000045,,108.69903210015036,s,1,0.4290678999386728,None,,TV21,001,2025-04-01_14h28.58.900,416_EXPERIMENT_PSYCHOPY_AU2220019_AU2220225,2024.2.4,59.33151189039835,2025-04-01 14h33.43.307034 +0530,
fear.jpg,f,36,0,6,f,1,0.5499259000644088,None,6,0,36,0,108.7191782000009,,,,,,,,,,,,,,,,108.71327610011213,108.7191782000009,110.1998255001381,110.1998255001381,110.23326110001653,110.71417109994218,110.75359540013596,f,1,0.5499259000644088,None,,TV21,001,2025-04-01_14h28.58.900,416_EXPERIMENT_PSYCHOPY_AU2220019_AU2220225,2024.2.4,59.33151189039835,2025-04-01 14h33.43.307034 +0530,
fear_upper_blur.jpg,f,37,1,6,None,0,,,6,1,37,2,110.77131809992716,,,,,,,,,,,,,,,,110.7654989999719,110.77131809992716,112.26713769999333,112.26713769999333,112.28354159998707,112.76607859996147,113.01645740005188,None,0,,,,TV21,001,2025-04-01_14h28.58.900,416_EXPERIMENT_PSYCHOPY_AU2220019_AU2220225,2024.2.4,59.33151189039835,2025-04-01 14h33.43.307034 +0530,
surprise_lower_blur.jpg,s,38,2,6,s,1,0.6618860999587923,None,6,2,38,5,113.03551200008951,,,,,,,,,,,,,,,,113.02985280007124,113.03551200008951,114.51613040012307,114.51613040012307,114.5491438000463,115.01758480002172,115.18468650011346,s,1,0.6618860999587923,None,,TV21,001,2025-04-01_14h28.58.900,416_EXPERIMENT_PSYCHOPY_AU2220019_AU2220225,2024.2.4,59.33151189039835,2025-04-01 14h33.43.307034 +0530,
surprise_upper_blur.jpg,s,39,3,6,f,0,0.5768526999745518,None,6,3,39,4,115.20330379996449,,,,,,,,,,,,,,,,115.19810319994576,115.20330379996449,116.69973780005239,116.69973780005239,116.71628289995715,117.19972730008885,117.28514160006307,f,0,0.5768526999745518,None,,TV21,001,2025-04-01_14h28.58.900,416_EXPERIMENT_PSYCHOPY_AU2220019_AU2220225,2024.2.4,59.33151189039835,2025-04-01 14h33.43.307034 +0530,
surprise.jpg,s,40,4,6,None,0,,,6,4,40,1,117.3051293999888,,,,,,,,,,,,,,,,117.29908649995923,117.3051293999888,118.79928590008058,118.79928590008058,118.81417670007795,119.31406940007582,119.5325716000516,None,0,,,119.5507756001316,TV21,001,2025-04-01_14h28.58.900,416_EXPERIMENT_PSYCHOPY_AU2220019_AU2220225,2024.2.4,59.33151189039835,2025-04-01 14h33.43.307034 +0530,
fear_lower_blur.jpg,f,41,5,6,f,1,0.3149580000899732,None,6,5,41,3,119.5507756001316,,,,,,,,,,,,,,,,119.54488110006787,119.5507756001316,121.04802190000191,121.04802190000191,121.06433590012603,,121.36801149998792,f,1,0.3149580000899732,None,,TV21,001,2025-04-01_14h28.58.900,416_EXPERIMENT_PSYCHOPY_AU2220019_AU2220225,2024.2.4,59.33151189039835,2025-04-01 14h33.43.307034 +0530,
fear.jpg,f,42,0,7,s,0,0.6003231999929994,None,7,0,42,0,121.38713679998182,,,,,,,,,,,,,,,,121.38169339997694,121.38713679998182,122.88314300007187,122.88314300007187,122.89950209995732,123.39751680009067,123.48741689999588,s,0,0.6003231999929994,None,,TV21,001,2025-04-01_14h28.58.900,416_EXPERIMENT_PSYCHOPY_AU2220019_AU2220225,2024.2.4,59.33151189039835,2025-04-01 14h33.43.307034 +0530,
surprise_lower_blur.jpg,s,43,1,7,None,0,,,7,1,43,5,123.50665630004369,,,,,,,,,,,,,,,,123.5010802000761,123.50665630004369,124.99877710011788,124.99877710011788,125.01453209994361,125.49924129992723,125.7341273999773,None,0,,,125.75214649992995,TV21,001,2025-04-01_14h28.58.900,416_EXPERIMENT_PSYCHOPY_AU2220019_AU2220225,2024.2.4,59.33151189039835,2025-04-01 14h33.43.307034 +0530,
surprise_upper_blur.jpg,s,44,2,7,f,0,0.23433870007283986,None,7,2,44,4,125.75214649992995,,,,,,,,,,,,,,,,125.74708630004898,125.75214649992995,127.24769320013002,127.24769320013002,127.26563769998029,,127.48495290009305,f,0,0.23433870007283986,None,,TV21,001,2025-04-01_14h28.58.900,416_EXPERIMENT_PSYCHOPY_AU2220019_AU2220225,2024.2.4,59.33151189039835,2025-04-01 14h33.43.307034 +0530,
fear_lower_blur.jpg,f,45,3,7,f,1,0.5304324999451637,None,7,3,45,3,127.50008510006592,,,,,,,,,,,,,,,,127.49494819995016,127.50008510006592,128.99746900005266,128.99746900005266,129.01608650013804,129.49935539998114,129.5355094000697,f,1,0.5304324999451637,None,,TV21,001,2025-04-01_14h28.58.900,416_EXPERIMENT_PSYCHOPY_AU2220019_AU2220225,2024.2.4,59.33151189039835,2025-04-01 14h33.43.307034 +0530,
fear_upper_blur.jpg,f,46,4,7,s,0,0.5642927000299096,None,7,4,46,2,129.55560750002041,,,,,,,,,,,,,,,,129.54960000002757,129.55560750002041,131.049205099931,131.049205099931,131.06689279992133,131.5494500999339,131.61863890010864,s,0,0.5642927000299096,None,,TV21,001,2025-04-01_14h28.58.900,416_EXPERIMENT_PSYCHOPY_AU2220019_AU2220225,2024.2.4,59.33151189039835,2025-04-01 14h33.43.307034 +0530,
surprise.jpg,s,47,5,7,f,0,0.41770350001752377,None,7,5,47,1,131.637416300131,,,,,,,,,,,,,,,,131.63192930002697,131.637416300131,133.13306979998015,133.13306979998015,133.14928929996677,,133.55448940000497,f,0,0.41770350001752377,None,,TV21,001,2025-04-01_14h28.58.900,416_EXPERIMENT_PSYCHOPY_AU2220019_AU2220225,2024.2.4,59.33151189039835,2025-04-01 14h33.43.307034 +0530,
fear_upper_blur.jpg,f,48,0,8,f,1,0.4863508001435548,None,8,0,48,2,133.57323360000737,,,,,,,,,,,,,,,,133.56763190007769,133.57323360000737,135.06672360002995,135.06672360002995,135.08301579998806,135.56602660007775,135.56857320014387,f,1,0.4863508001435548,None,,TV21,001,2025-04-01_14h28.58.900,416_EXPERIMENT_PSYCHOPY_AU2220019_AU2220225,2024.2.4,59.33151189039835,2025-04-01 14h33.43.307034 +0530,
surprise_upper_blur.jpg,s,49,1,8,s,1,0.7170307000633329,None,8,1,49,4,135.5867530000396,,,,,,,,,,,,,,,,135.58146840007976,135.5867530000396,137.08275900012814,137.08275900012814,137.0998575000558,137.59801700012758,137.8159713000059,s,1,0.7170307000633329,None,,TV21,001,2025-04-01_14h28.58.900,416_EXPERIMENT_PSYCHOPY_AU2220019_AU2220225,2024.2.4,59.33151189039835,2025-04-01 14h33.43.307034 +0530,
fear.jpg,f,50,2,8,f,1,0.5124652998056263,None,8,2,50,0,137.83358209999278,,,,,,,,,,,,,,,,137.82948240009136,137.83358209999278,139.31598390010186,139.31598390010186,139.33195500005968,139.81586290011182,139.83513580006547,f,1,0.5124652998056263,None,,TV21,001,2025-04-01_14h28.58.900,416_EXPERIMENT_PSYCHOPY_AU2220019_AU2220225,2024.2.4,59.33151189039835,2025-04-01 14h33.43.307034 +0530,
surprise_lower_blur.jpg,s,51,3,8,f,0,0.3319047000259161,None,8,3,51,5,139.853539200034,,,,,,,,,,,,,,,,139.84810609999113,139.853539200034,141.3497270999942,141.3497270999942,141.366438300116,,141.68526770011522,f,0,0.3319047000259161,None,,TV21,001,2025-04-01_14h28.58.900,416_EXPERIMENT_PSYCHOPY_AU2220019_AU2220225,2024.2.4,59.33151189039835,2025-04-01 14h33.43.307034 +0530,
surprise.jpg,s,52,4,8,f,0,0.38474989985115826,None,8,4,52,1,141.70309139997698,,,,,,,,,,,,,,,,141.69799740007147,141.70309139997698,143.19921260001138,143.19921260001138,143.21626579994336,,143.60167190013453,f,0,0.38474989985115826,None,,TV21,001,2025-04-01_14h28.58.900,416_EXPERIMENT_PSYCHOPY_AU2220019_AU2220225,2024.2.4,59.33151189039835,2025-04-01 14h33.43.307034 +0530,
fear_lower_blur.jpg,f,53,5,8,f,1,0.42586259986273944,None,8,5,53,3,143.62001690012403,,,,,,,,,,,,,,,,143.61491010012105,143.62001690012403,145.11594750010408,145.11594750010408,145.13292669993825,,145.55218699993566,f,1,0.42586259986273944,None,,TV21,001,2025-04-01_14h28.58.900,416_EXPERIMENT_PSYCHOPY_AU2220019_AU2220225,2024.2.4,59.33151189039835,2025-04-01 14h33.43.307034 +0530,
surprise_upper_blur.jpg,s,54,0,9,None,0,,,9,0,54,4,145.57128520007245,,,,,,,,,,,,,,,,145.5657011999283,145.57128520007245,147.0658923999872,147.0658923999872,147.0833302999381,147.5660252000671,147.8016276000999,None,0,,,147.82051760004833,TV21,001,2025-04-01_14h28.58.900,416_EXPERIMENT_PSYCHOPY_AU2220019_AU2220225,2024.2.4,59.33151189039835,2025-04-01 14h33.43.307034 +0530,
fear_lower_blur.jpg,f,55,1,9,f,1,0.5146315998863429,None,9,1,55,3,147.82051760004833,,,,,,,,,,,,,,,,147.81455340003595,147.82051760004833,149.3167832000181,149.3167832000181,149.33123690006323,149.81581369997002,149.835742500145,f,1,0.5146315998863429,None,,TV21,001,2025-04-01_14h28.58.900,416_EXPERIMENT_PSYCHOPY_AU2220019_AU2220225,2024.2.4,59.33151189039835,2025-04-01 14h33.43.307034 +0530,
surprise.jpg,s,56,2,9,s,1,0.487419500015676,None,9,2,56,1,149.85501660010777,,,,,,,,,,,,,,,,149.84959330013953,149.85501660010777,151.3498746000696,151.3498746000696,151.36626449995674,151.84925590013154,151.851440400118,s,1,0.487419500015676,None,,TV21,001,2025-04-01_14h28.58.900,416_EXPERIMENT_PSYCHOPY_AU2220019_AU2220225,2024.2.4,59.33151189039835,2025-04-01 14h33.43.307034 +0530,
fear.jpg,f,57,3,9,f,1,0.7049572998657823,None,9,3,57,0,151.87010950013064,,,,,,,,,,,,,,,,151.86433389992453,151.87010950013064,153.3644964999985,153.3644964999985,153.38081070012413,153.86589569994248,154.0853450000286,f,1,0.7049572998657823,None,,TV21,001,2025-04-01_14h28.58.900,416_EXPERIMENT_PSYCHOPY_AU2220019_AU2220225,2024.2.4,59.33151189039835,2025-04-01 14h33.43.307034 +0530,
fear_upper_blur.jpg,f,58,4,9,s,0,0.45768570015206933,None,9,4,58,2,154.10501549998298,,,,,,,,,,,,,,,,154.0989314999897,154.10501549998298,155.5977593001444,155.5977593001444,155.61430720007047,,156.06790639995597,s,0,0.45768570015206933,None,,TV21,001,2025-04-01_14h28.58.900,416_EXPERIMENT_PSYCHOPY_AU2220019_AU2220225,2024.2.4,59.33151189039835,2025-04-01 14h33.43.307034 +0530,
surprise_lower_blur.jpg,s,59,5,9,f,0,0.5185446999967098,None,9,5,59,5,156.0861083001364,,,,,,,,,,,,,,,,156.08090459997766,156.0861083001364,157.5814324999228,157.5814324999228,157.59792970004492,158.08196550002322,158.1166833001189,f,0,0.5185446999967098,None,,TV21,001,2025-04-01_14h28.58.900,416_EXPERIMENT_PSYCHOPY_AU2220019_AU2220225,2024.2.4,59.33151189039835,2025-04-01 14h33.43.307034 +0530,
surprise.jpg,s,60,0,10,s,1,0.45806340011768043,None,10,0,60,1,158.13334490009584,,,,,,,,,,,,,,,,158.12763629993424,158.13334490009584,159.61669400008395,159.61669400008395,159.6332169000525,,160.08555399999022,s,1,0.45806340011768043,None,,TV21,001,2025-04-01_14h28.58.900,416_EXPERIMENT_PSYCHOPY_AU2220019_AU2220225,2024.2.4,59.33151189039835,2025-04-01 14h33.43.307034 +0530,
fear_upper_blur.jpg,f,61,1,10,f,1,0.3212229998316616,None,10,1,61,2,160.10512319998816,,,,,,,,,,,,,,,,160.09963089996018,160.10512319998816,161.58401690004393,161.58401690004393,161.61656100000255,,161.9175502001308,f,1,0.3212229998316616,None,,TV21,001,2025-04-01_14h28.58.900,416_EXPERIMENT_PSYCHOPY_AU2220019_AU2220225,2024.2.4,59.33151189039835,2025-04-01 14h33.43.307034 +0530,
fear_lower_blur.jpg,f,62,2,10,f,1,0.5684934000018984,None,10,2,62,3,161.9365238000173,,,,,,,,,,,,,,,,161.92990190000273,161.9365238000173,163.4311967000831,163.4311967000831,163.4489277000539,163.93314220011234,164.00312720006332,f,1,0.5684934000018984,None,,TV21,001,2025-04-01_14h28.58.900,416_EXPERIMENT_PSYCHOPY_AU2220019_AU2220225,2024.2.4,59.33151189039835,2025-04-01 14h33.43.307034 +0530,
surprise_upper_blur.jpg,s,63,3,10,f,0,0.3899989000055939,None,10,3,63,4,164.0225374000147,,,,,,,,,,,,,,,,164.0166975001339,164.0225374000147,165.51657279999927,165.51657279999927,165.533222500002,,165.91688450006768,f,0,0.3899989000055939,None,,TV21,001,2025-04-01_14h28.58.900,416_EXPERIMENT_PSYCHOPY_AU2220019_AU2220225,2024.2.4,59.33151189039835,2025-04-01 14h33.43.307034 +0530,
fear.jpg,f,64,4,10,s,0,0.35069310013204813,None,10,4,64,0,165.9371849000454,,,,,,,,,,,,,,,,165.9314588000998,165.9371849000454,167.41685330006294,167.41685330006294,167.44831999996677,,167.78377610002644,s,0,0.35069310013204813,None,,TV21,001,2025-04-01_14h28.58.900,416_EXPERIMENT_PSYCHOPY_AU2220019_AU2220225,2024.2.4,59.33151189039835,2025-04-01 14h33.43.307034 +0530,
surprise_lower_blur.jpg,s,65,5,10,f,0,0.27385109988972545,None,10,5,65,5,167.80016690003686,,,,,,,,,,,,,,,,167.79357150010765,167.80016690003686,169.28142020013183,169.28142020013183,169.31490659993142,,169.56866899994202,f,0,0.27385109988972545,None,,TV21,001,2025-04-01_14h28.58.900,416_EXPERIMENT_PSYCHOPY_AU2220019_AU2220225,2024.2.4,59.33151189039835,2025-04-01 14h33.43.307034 +0530,
surprise.jpg,s,66,0,11,f,0,0.35104930005036294,None,11,0,66,1,169.58894190005958,,,,,,,,,,,,,,,,169.58284980012104,169.58894190005958,171.08322519995272,171.08322519995272,171.1000958001241,,171.43818820011802,f,0,0.35104930005036294,None,,TV21,001,2025-04-01_14h28.58.900,416_EXPERIMENT_PSYCHOPY_AU2220019_AU2220225,2024.2.4,59.33151189039835,2025-04-01 14h33.43.307034 +0530,
surprise_lower_blur.jpg,s,67,1,11,f,0,0.4361455999314785,None,11,1,67,5,171.45697659999132,,,,,,,,,,,,,,,,171.45148200006224,171.45697659999132,172.94782050000504,172.94782050000504,172.96680809999816,,173.3874908001162,f,0,0.4361455999314785,None,,TV21,001,2025-04-01_14h28.58.900,416_EXPERIMENT_PSYCHOPY_AU2220019_AU2220225,2024.2.4,59.33151189039835,2025-04-01 14h33.43.307034 +0530,
surprise_upper_blur.jpg,s,68,2,11,s,1,0.5993648001458496,None,11,2,68,4,173.406316800043,,,,,,,,,,,,,,,,173.40109449997544,173.406316800043,174.89810210000724,174.89810210000724,174.9149092999287,175.39738929993473,175.50196409993805,s,1,0.5993648001458496,None,,TV21,001,2025-04-01_14h28.58.900,416_EXPERIMENT_PSYCHOPY_AU2220019_AU2220225,2024.2.4,59.33151189039835,2025-04-01 14h33.43.307034 +0530,
fear_upper_blur.jpg,f,69,3,11,f,1,0.3788709999062121,None,11,3,69,2,175.52142010000534,,,,,,,,,,,,,,,,175.51514669996686,175.52142010000534,177.0165687999688,177.0165687999688,177.0317466999404,,177.40185800008476,f,1,0.3788709999062121,None,,TV21,001,2025-04-01_14h28.58.900,416_EXPERIMENT_PSYCHOPY_AU2220019_AU2220225,2024.2.4,59.33151189039835,2025-04-01 14h33.43.307034 +0530,
fear_lower_blur.jpg,f,70,4,11,f,1,0.5933523001149297,None,11,4,70,3,177.4182378000114,,,,,,,,,,,,,,,,177.41293040011078,177.4182378000114,178.9148128000088,178.9148128000088,178.9314427000936,179.41692320001312,179.51881729997694,f,1,0.5933523001149297,None,,TV21,001,2025-04-01_14h28.58.900,416_EXPERIMENT_PSYCHOPY_AU2220019_AU2220225,2024.2.4,59.33151189039835,2025-04-01 14h33.43.307034 +0530,
fear.jpg,f,71,5,11,s,0,0.5127787999808788,None,11,5,71,0,179.53897049999796,,,,,,,,,,,,,,,,179.5331807001494,179.53897049999796,181.03258180012926,181.03258180012926,181.04831650014967,181.53329059993848,181.55029010004364,s,0,0.5127787999808788,None,,TV21,001,2025-04-01_14h28.58.900,416_EXPERIMENT_PSYCHOPY_AU2220019_AU2220225,2024.2.4,59.33151189039835,2025-04-01 14h33.43.307034 +0530,
fear_upper_blur.jpg,f,72,0,12,f,1,0.599865100113675,None,12,0,72,2,181.56779960007407,,,,,,,,,,,,,,,,181.5625311001204,181.56779960007407,183.0500664000865,183.0500664000865,183.08318300009705,183.5495889999438,183.65415420010686,f,1,0.599865100113675,None,,TV21,001,2025-04-01_14h28.58.900,416_EXPERIMENT_PSYCHOPY_AU2220019_AU2220225,2024.2.4,59.33151189039835,2025-04-01 14h33.43.307034 +0530,
surprise_lower_blur.jpg,s,73,1,12,s,1,0.501980499830097,None,12,1,73,5,183.67456660000607,,,,,,,,,,,,,,,,183.66886380012147,183.67456660000607,185.16660739993677,185.16660739993677,185.18353729997762,185.66657879995182,185.68310349993408,s,1,0.501980499830097,None,,TV21,001,2025-04-01_14h28.58.900,416_EXPERIMENT_PSYCHOPY_AU2220019_AU2220225,2024.2.4,59.33151189039835,2025-04-01 14h33.43.307034 +0530,
surprise.jpg,s,74,2,12,s,1,0.5948140998370945,None,12,2,74,1,185.70157149992883,,,,,,,,,,,,,,,,185.69637260003947,185.70157149992883,187.18216780014336,187.18216780014336,187.21546899992973,187.68320800014772,187.78450409998186,s,1,0.5948140998370945,None,,TV21,001,2025-04-01_14h28.58.900,416_EXPERIMENT_PSYCHOPY_AU2220019_AU2220225,2024.2.4,59.33151189039835,2025-04-01 14h33.43.307034 +0530,
fear.jpg,f,75,3,12,f,1,0.3169259000569582,None,12,3,75,0,187.80343690002337,,,,,,,,,,,,,,,,187.7982195999939,187.80343690002337,189.29917620006017,189.29917620006017,189.31623400002718,,189.61964859999716,f,1,0.3169259000569582,None,,TV21,001,2025-04-01_14h28.58.900,416_EXPERIMENT_PSYCHOPY_AU2220019_AU2220225,2024.2.4,59.33151189039835,2025-04-01 14h33.43.307034 +0530,
surprise_upper_blur.jpg,s,76,4,12,None,0,,,12,4,76,4,189.63890650006942,,,,,,,,,,,,,,,,189.63342680013739,189.63890650006942,191.13083019992337,191.13083019992337,191.15007820003666,191.63263550004922,191.86710199993104,None,0,,,191.88611740013584,TV21,001,2025-04-01_14h28.58.900,416_EXPERIMENT_PSYCHOPY_AU2220019_AU2220225,2024.2.4,59.33151189039835,2025-04-01 14h33.43.307034 +0530,
fear_lower_blur.jpg,f,77,5,12,f,1,0.3254324998706579,None,12,5,77,3,191.88611740013584,,,,,,,,,,,,,,,,191.88133310014382,191.88611740013584,193.383004500065,193.383004500065,193.39947340008803,,193.71591740008444,f,1,0.3254324998706579,None,,TV21,001,2025-04-01_14h28.58.900,416_EXPERIMENT_PSYCHOPY_AU2220019_AU2220225,2024.2.4,59.33151189039835,2025-04-01 14h33.43.307034 +0530,
surprise_lower_blur.jpg,s,78,0,13,s,1,0.40037219994701445,None,13,0,78,5,193.7344283000566,,,,,,,,,,,,,,,,193.72893700003624,193.7344283000566,195.21633079997264,195.21633079997264,195.2495136000216,,195.62024860014208,s,1,0.40037219994701445,None,,TV21,001,2025-04-01_14h28.58.900,416_EXPERIMENT_PSYCHOPY_AU2220019_AU2220225,2024.2.4,59.33151189039835,2025-04-01 14h33.43.307034 +0530,
fear_lower_blur.jpg,f,79,1,13,f,1,0.3475949000567198,None,13,1,79,3,195.63930750009604,,,,,,,,,,,,,,,,195.63349000015296,195.63930750009604,197.13246120000258,197.13246120000258,197.14974929997697,,197.48537130001932,f,1,0.3475949000567198,None,,TV21,001,2025-04-01_14h28.58.900,416_EXPERIMENT_PSYCHOPY_AU2220019_AU2220225,2024.2.4,59.33151189039835,2025-04-01 14h33.43.307034 +0530,
surprise_upper_blur.jpg,s,80,2,13,s,1,0.37516249995678663,None,13,2,80,4,197.50398809998296,,,,,,,,,,,,,,,,197.498475600034,197.50398809998296,198.99964620009996,198.99964620009996,199.0160821999889,,199.38474970008247,s,1,0.37516249995678663,None,,TV21,001,2025-04-01_14h28.58.900,416_EXPERIMENT_PSYCHOPY_AU2220019_AU2220225,2024.2.4,59.33151189039835,2025-04-01 14h33.43.307034 +0530,
fear_upper_blur.jpg,f,81,3,13,f,1,0.3961162001360208,None,13,3,81,2,199.4035952000413,,,,,,,,,,,,,,,,199.3981419999618,199.4035952000413,200.89951750007458,200.89951750007458,200.9162159000989,,201.3015727000311,f,1,0.3961162001360208,None,,TV21,001,2025-04-01_14h28.58.900,416_EXPERIMENT_PSYCHOPY_AU2220019_AU2220225,2024.2.4,59.33151189039835,2025-04-01 14h33.43.307034 +0530,
fear.jpg,f,82,4,13,None,0,,,13,4,82,0,201.32172939996235,,,,,,,,,,,,,,,,201.3162752999924,201.32172939996235,202.81450500013307,202.81450500013307,202.83089710003696,203.31629440002143,203.54981609992683,None,0,,,203.5669285999611,TV21,001,2025-04-01_14h28.58.900,416_EXPERIMENT_PSYCHOPY_AU2220019_AU2220225,2024.2.4,59.33151189039835,2025-04-01 14h33.43.307034 +0530,
surprise.jpg,s,83,5,13,s,1,0.49912849999964237,None,13,5,83,1,203.5669285999611,,,,,,,,,,,,,,,,203.56072059995495,203.5669285999611,205.06606420013122,205.06606420013122,205.08278609998524,205.58089020010084,205.58232269994915,s,1,0.49912849999964237,None,,TV21,001,2025-04-01_14h28.58.900,416_EXPERIMENT_PSYCHOPY_AU2220019_AU2220225,2024.2.4,59.33151189039835,2025-04-01 14h33.43.307034 +0530,
fear.jpg,f,84,0,14,f,1,0.5570268000010401,None,14,0,84,0,205.60056790011004,,,,,,,,,,,,,,,,205.59544220007956,205.60056790011004,207.0830862999428,207.0830862999428,207.09949290007353,207.5825217999518,207.6522425999865,f,1,0.5570268000010401,None,,TV21,001,2025-04-01_14h28.58.900,416_EXPERIMENT_PSYCHOPY_AU2220019_AU2220225,2024.2.4,59.33151189039835,2025-04-01 14h33.43.307034 +0530,
fear_lower_blur.jpg,f,85,1,14,f,1,0.6461419998668134,None,14,1,85,3,207.67077039997093,,,,,,,,,,,,,,,,207.66490560001694,207.67077039997093,209.16580550000072,209.16580550000072,209.18271089997143,209.66643290012144,209.8180370000191,f,1,0.6461419998668134,None,,TV21,001,2025-04-01_14h28.58.900,416_EXPERIMENT_PSYCHOPY_AU2220019_AU2220225,2024.2.4,59.33151189039835,2025-04-01 14h33.43.307034 +0530,
surprise.jpg,s,86,2,14,s,1,0.5981939998455346,None,14,2,86,1,209.8372665999923,,,,,,,,,,,,,,,,209.83195649995469,209.8372665999923,211.33251440012828,211.33251440012828,211.34973350004293,211.8339092999231,211.9338750001043,s,1,0.5981939998455346,None,,TV21,001,2025-04-01_14h28.58.900,416_EXPERIMENT_PSYCHOPY_AU2220019_AU2220225,2024.2.4,59.33151189039835,2025-04-01 14h33.43.307034 +0530,
fear_upper_blur.jpg,f,87,3,14,f,1,0.5781884000170976,None,14,3,87,2,211.9530583000742,,,,,,,,,,,,,,,,211.946964800125,211.9530583000742,213.4492172000464,213.4492172000464,213.46426700009033,213.94906400004402,214.0357119999826,f,1,0.5781884000170976,None,,TV21,001,2025-04-01_14h28.58.900,416_EXPERIMENT_PSYCHOPY_AU2220019_AU2220225,2024.2.4,59.33151189039835,2025-04-01 14h33.43.307034 +0530,
surprise_upper_blur.jpg,s,88,4,14,f,0,0.5099190999753773,None,14,4,88,4,214.05446020001546,,,,,,,,,,,,,,,,214.04892139998265,214.05446020001546,215.5474911001511,215.5474911001511,215.56422449997626,216.04932350013405,216.06830450007692,f,0,0.5099190999753773,None,,TV21,001,2025-04-01_14h28.58.900,416_EXPERIMENT_PSYCHOPY_AU2220019_AU2220225,2024.2.4,59.33151189039835,2025-04-01 14h33.43.307034 +0530,
surprise_lower_blur.jpg,s,89,5,14,f,0,0.49493409995920956,None,14,5,89,5,216.0876873000525,,,,,,,,,,,,,,,,216.08228339999914,216.0876873000525,217.58114160015248,217.58114160015248,217.5982045000419,218.08275069994852,218.08483840012923,f,0,0.49493409995920956,None,,TV21,001,2025-04-01_14h28.58.900,416_EXPERIMENT_PSYCHOPY_AU2220019_AU2220225,2024.2.4,59.33151189039835,2025-04-01 14h33.43.307034 +0530,
fear_upper_blur.jpg,f,90,0,15,f,1,0.4307880001142621,None,15,0,90,2,218.10362570011057,,,,,,,,,,,,,,,,218.0980025001336,218.10362570011057,219.59929849999025,219.59929849999025,219.61618510005064,,220.03619390004314,f,1,0.4307880001142621,None,,TV21,001,2025-04-01_14h28.58.900,416_EXPERIMENT_PSYCHOPY_AU2220019_AU2220225,2024.2.4,59.33151189039835,2025-04-01 14h33.43.307034 +0530,
surprise_upper_blur.jpg,s,91,1,15,f,0,0.3724036000203341,None,15,1,91,4,220.05493560014293,,,,,,,,,,,,,,,,220.04929940006696,220.05493560014293,221.54741100012325,221.54741100012325,221.56609600014053,,221.93210650002584,f,0,0.3724036000203341,None,,TV21,001,2025-04-01_14h28.58.900,416_EXPERIMENT_PSYCHOPY_AU2220019_AU2220225,2024.2.4,59.33151189039835,2025-04-01 14h33.43.307034 +0530,
fear.jpg,f,92,2,15,s,0,0.380701000103727,None,15,2,92,0,221.9507067000959,,,,,,,,,,,,,,,,221.94520079996437,221.9507067000959,223.43075820012018,223.43075820012018,223.46419810014777,,223.8160147999879,s,0,0.380701000103727,None,,TV21,001,2025-04-01_14h28.58.900,416_EXPERIMENT_PSYCHOPY_AU2220019_AU2220225,2024.2.4,59.33151189039835,2025-04-01 14h33.43.307034 +0530,
fear_lower_blur.jpg,f,93,3,15,f,1,0.41136249992996454,None,15,3,93,3,223.83203419996426,,,,,,,,,,,,,,,,223.8261688000057,223.83203419996426,225.33269560011104,225.33269560011104,225.33269560011104,,225.75224880012684,f,1,0.41136249992996454,None,,TV21,001,2025-04-01_14h28.58.900,416_EXPERIMENT_PSYCHOPY_AU2220019_AU2220225,2024.2.4,59.33151189039835,2025-04-01 14h33.43.307034 +0530,
surprise_lower_blur.jpg,s,94,4,15,f,0,0.3008224000222981,None,15,4,94,5,225.77105360012501,,,,,,,,,,,,,,,,225.7653429999482,225.77105360012501,227.2666819000151,227.2666819000151,227.28280919999816,,227.58448439999484,f,0,0.3008224000222981,None,,TV21,001,2025-04-01_14h28.58.900,416_EXPERIMENT_PSYCHOPY_AU2220019_AU2220225,2024.2.4,59.33151189039835,2025-04-01 14h33.43.307034 +0530,
surprise.jpg,s,95,5,15,f,0,0.34176129987463355,None,15,5,95,1,227.6034282001201,,,,,,,,,,,,,,,,227.59848099993542,227.6034282001201,229.09919869992882,229.09919869992882,229.1157976000104,,229.4510570000857,f,0,0.34176129987463355,None,,TV21,001,2025-04-01_14h28.58.900,416_EXPERIMENT_PSYCHOPY_AU2220019_AU2220225,2024.2.4,59.33151189039835,2025-04-01 14h33.43.307034 +0530,
fear_lower_blur.jpg,f,96,0,16,f,1,0.6202712000813335,None,16,0,96,3,229.47008599992841,,,,,,,,,,,,,,,,229.4647214000579,229.47008599992841,230.9662629000377,230.9662629000377,230.9828421000857,231.4662325999234,231.5987344000023,f,1,0.6202712000813335,None,,TV21,001,2025-04-01_14h28.58.900,416_EXPERIMENT_PSYCHOPY_AU2220019_AU2220225,2024.2.4,59.33151189039835,2025-04-01 14h33.43.307034 +0530,
fear_upper_blur.jpg,f,97,1,16,f,1,0.556326299905777,None,16,1,97,2,231.617479900131,,,,,,,,,,,,,,,,231.61121500004083,231.617479900131,233.09712860011496,233.09712860011496,233.13060580007732,233.59950940008275,233.6678200000897,f,1,0.556326299905777,None,,TV21,001,2025-04-01_14h28.58.900,416_EXPERIMENT_PSYCHOPY_AU2220019_AU2220225,2024.2.4,59.33151189039835,2025-04-01 14h33.43.307034 +0530,
surprise_upper_blur.jpg,s,98,2,16,f,0,0.5589912999421358,None,16,2,98,4,233.68416590010747,,,,,,,,,,,,,,,,233.67864180007018,233.68416590010747,235.180579100037,235.180579100037,235.19738280004822,235.682553099934,235.75114160007797,f,0,0.5589912999421358,None,,TV21,001,2025-04-01_14h28.58.900,416_EXPERIMENT_PSYCHOPY_AU2220019_AU2220225,2024.2.4,59.33151189039835,2025-04-01 14h33.43.307034 +0530,
surprise.jpg,s,99,3,16,None,0,,,16,3,99,1,235.77135440008715,,,,,,,,,,,,,,,,235.76536640012637,235.77135440008715,237.26649830001406,237.26649830001406,237.28326970012859,237.7658659000881,238.00147409993224,None,0,,,238.02018550015055,TV21,001,2025-04-01_14h28.58.900,416_EXPERIMENT_PSYCHOPY_AU2220019_AU2220225,2024.2.4,59.33151189039835,2025-04-01 14h33.43.307034 +0530,
surprise_lower_blur.jpg,s,100,4,16,f,0,0.28976249997504056,None,16,4,100,5,238.02018550015055,,,,,,,,,,,,,,,,238.0151720000431,238.02018550015055,239.5139311000239,239.5139311000239,239.53148200013675,,239.81866540014744,f,0,0.28976249997504056,None,,TV21,001,2025-04-01_14h28.58.900,416_EXPERIMENT_PSYCHOPY_AU2220019_AU2220225,2024.2.4,59.33151189039835,2025-04-01 14h33.43.307034 +0530,
fear.jpg,f,101,5,16,f,1,0.5544924000278115,None,16,5,101,0,239.838792799972,,,,,,,,,,,,,,,,239.8334300001152,239.838792799972,241.33353139995597,241.33353139995597,241.34946279996075,241.83223460009322,241.8999592999462,f,1,0.5544924000278115,None,,TV21,001,2025-04-01_14h28.58.900,416_EXPERIMENT_PSYCHOPY_AU2220019_AU2220225,2024.2.4,59.33151189039835,2025-04-01 14h33.43.307034 +0530,
fear.jpg,f,102,0,17,f,1,0.46031920006498694,None,17,0,102,0,241.91970500000753,,,,,,,,,,,,,,,,241.91374160000123,241.91970500000753,243.3995165999513,243.3995165999513,243.43231810000725,,243.8678083999548,f,1,0.46031920006498694,None,,TV21,001,2025-04-01_14h28.58.900,416_EXPERIMENT_PSYCHOPY_AU2220019_AU2220225,2024.2.4,59.33151189039835,2025-04-01 14h33.43.307034 +0530,
surprise_upper_blur.jpg,s,103,1,17,s,1,0.5887108000461012,None,17,1,103,4,243.88661619997583,,,,,,,,,,,,,,,,243.88066620007157,243.88661619997583,245.3828398999758,245.3828398999758,245.39944480010308,245.8828565001022,245.98241330008022,s,1,0.5887108000461012,None,,TV21,001,2025-04-01_14h28.58.900,416_EXPERIMENT_PSYCHOPY_AU2220019_AU2220225,2024.2.4,59.33151189039835,2025-04-01 14h33.43.307034 +0530,
fear_lower_blur.jpg,f,104,2,17,f,1,0.42113130004145205,None,17,2,104,3,246.00030290009454,,,,,,,,,,,,,,,,245.99459050013684,246.00030290009454,247.48298530001193,247.48298530001193,247.4995514000766,,247.91698570013978,f,1,0.42113130004145205,None,,TV21,001,2025-04-01_14h28.58.900,416_EXPERIMENT_PSYCHOPY_AU2220019_AU2220225,2024.2.4,59.33151189039835,2025-04-01 14h33.43.307034 +0530,
surprise_lower_blur.jpg,s,105,3,17,None,0,,,17,3,105,5,247.9350980001036,,,,,,,,,,,,,,,,247.9298557001166,247.9350980001036,249.41634230013005,249.41634230013005,249.44982310011983,249.9163846001029,250.1655749999918,None,0,,,250.18474090006202,TV21,001,2025-04-01_14h28.58.900,416_EXPERIMENT_PSYCHOPY_AU2220019_AU2220225,2024.2.4,59.33151189039835,2025-04-01 14h33.43.307034 +0530,
surprise.jpg,s,106,4,17,s,1,0.583486899966374,None,17,4,106,1,250.18474090006202,,,,,,,,,,,,,,,,250.17871839995496,250.18474090006202,251.66578090004623,251.66578090004623,251.69835730013438,252.16659789998084,252.25280370004475,s,1,0.583486899966374,None,,TV21,001,2025-04-01_14h28.58.900,416_EXPERIMENT_PSYCHOPY_AU2220019_AU2220225,2024.2.4,59.33151189039835,2025-04-01 14h33.43.307034 +0530,
fear_upper_blur.jpg,f,107,5,17,f,1,0.486857500160113,None,17,5,107,2,252.27060430007987,,,,,,,,,,,,,,,,252.26596580003388,252.27060430007987,253.76604090002365,253.76604090002365,253.78283379995264,254.26611630013213,254.26825820002705,f,1,0.486857500160113,None,,TV21,001,2025-04-01_14h28.58.900,416_EXPERIMENT_PSYCHOPY_AU2220019_AU2220225,2024.2.4,59.33151189039835,2025-04-01 14h33.43.307034 +0530,
surprise.jpg,s,108,0,18,s,1,0.5182590999174863,None,18,0,108,1,254.2868059000466,,,,,,,,,,,,,,,,254.28167270007543,254.2868059000466,255.7810152999591,255.7810152999591,255.799420400057,256.28287190012634,256.30316370003857,s,1,0.5182590999174863,None,,TV21,001,2025-04-01_14h28.58.900,416_EXPERIMENT_PSYCHOPY_AU2220019_AU2220225,2024.2.4,59.33151189039835,2025-04-01 14h33.43.307034 +0530,
surprise_upper_blur.jpg,s,109,1,18,s,1,0.5162092999089509,None,18,1,109,4,256.3221829999238,,,,,,,,,,,,,,,,256.31654220004566,256.3221829999238,257.8165555000305,257.8165555000305,257.83298920001835,258.3309800999705,258.3491392999422,s,1,0.5162092999089509,None,,TV21,001,2025-04-01_14h28.58.900,416_EXPERIMENT_PSYCHOPY_AU2220019_AU2220225,2024.2.4,59.33151189039835,2025-04-01 14h33.43.307034 +0530,
fear.jpg,f,110,2,18,f,1,0.6329820000100881,None,18,2,110,0,258.3714038999751,,,,,,,,,,,,,,,,258.3662167999428,258.3714038999751,259.8499511999544,259.8499511999544,259.8828889001161,260.34913059999235,260.4866675999947,f,1,0.6329820000100881,None,,TV21,001,2025-04-01_14h28.58.900,416_EXPERIMENT_PSYCHOPY_AU2220019_AU2220225,2024.2.4,59.33151189039835,2025-04-01 14h33.43.307034 +0530,
surprise_lower_blur.jpg,s,111,3,18,s,1,0.663844299968332,None,18,3,111,5,260.50479459995404,,,,,,,,,,,,,,,,260.49979840009473,260.50479459995404,261.9992057001218,261.9992057001218,262.01640860014595,262.49944490008056,262.6691437000409,s,1,0.663844299968332,None,,TV21,001,2025-04-01_14h28.58.900,416_EXPERIMENT_PSYCHOPY_AU2220019_AU2220225,2024.2.4,59.33151189039835,2025-04-01 14h33.43.307034 +0530,
fear_lower_blur.jpg,f,112,4,18,f,1,0.3914895001798868,None,18,4,112,3,262.6873629000038,,,,,,,,,,,,,,,,262.6824590000324,262.6873629000038,264.1820640999358,264.1820640999358,264.1989231000189,,264.5822090001311,f,1,0.3914895001798868,None,,TV21,001,2025-04-01_14h28.58.900,416_EXPERIMENT_PSYCHOPY_AU2220019_AU2220225,2024.2.4,59.33151189039835,2025-04-01 14h33.43.307034 +0530,
fear_upper_blur.jpg,f,113,5,18,s,0,0.4106639001984149,None,18,5,113,2,264.59947389992885,,,,,,,,,,,,,,,,264.59216929995455,264.59947389992885,266.0826823001262,266.0826823001262,266.0981066999957,,266.50177400000393,s,0,0.4106639001984149,None,,TV21,001,2025-04-01_14h28.58.900,416_EXPERIMENT_PSYCHOPY_AU2220019_AU2220225,2024.2.4,59.33151189039835,2025-04-01 14h33.43.307034 +0530,
fear_upper_blur.jpg,f,114,0,19,None,0,,,19,0,114,2,266.5213152000215,,,,,,,,,,,,,,,,266.5151627000887,266.5213152000215,268.0164936000947,268.0164936000947,268.0329774999991,268.51601870008744,268.76670040003955,None,0,,,,TV21,001,2025-04-01_14h28.58.900,416_EXPERIMENT_PSYCHOPY_AU2220019_AU2220225,2024.2.4,59.33151189039835,2025-04-01 14h33.43.307034 +0530,
surprise_upper_blur.jpg,s,115,1,19,f,0,0.42207510001026094,None,19,1,115,4,268.785721299937,,,,,,,,,,,,,,,,268.7794439001009,268.785721299937,270.2661790000275,270.2661790000275,270.2997673000209,,270.7015953999944,f,0,0.42207510001026094,None,,TV21,001,2025-04-01_14h28.58.900,416_EXPERIMENT_PSYCHOPY_AU2220019_AU2220225,2024.2.4,59.33151189039835,2025-04-01 14h33.43.307034 +0530,
surprise.jpg,s,116,2,19,s,1,0.6041065999306738,None,19,2,116,1,270.72120389994234,,,,,,,,,,,,,,,,270.71588109992445,270.72120389994234,272.21416319999844,272.21416319999844,272.2313232999295,272.71568610006943,272.83433740003966,s,1,0.6041065999306738,None,,TV21,001,2025-04-01_14h28.58.900,416_EXPERIMENT_PSYCHOPY_AU2220019_AU2220225,2024.2.4,59.33151189039835,2025-04-01 14h33.43.307034 +0530,
fear.jpg,f,117,3,19,f,1,0.3617976000532508,None,19,3,117,0,272.8541065000463,,,,,,,,,,,,,,,,272.8483661999926,272.8541065000463,274.34933350002393,274.34933350002393,274.36626889999025,,274.7184051000513,f,1,0.3617976000532508,None,,TV21,001,2025-04-01_14h28.58.900,416_EXPERIMENT_PSYCHOPY_AU2220019_AU2220225,2024.2.4,59.33151189039835,2025-04-01 14h33.43.307034 +0530,
surprise_lower_blur.jpg,s,118,4,19,None,0,,,19,4,118,5,274.7377609999385,,,,,,,,,,,,,,,,274.73186030006036,274.7377609999385,276.23245800007135,276.23245800007135,276.24982489994727,276.74766690004617,276.96764510008506,None,0,,,276.98622029996477,TV21,001,2025-04-01_14h28.58.900,416_EXPERIMENT_PSYCHOPY_AU2220019_AU2220225,2024.2.4,59.33151189039835,2025-04-01 14h33.43.307034 +0530,
fear_lower_blur.jpg,f,119,5,19,f,1,0.3470958999823779,None,19,5,119,3,276.98622029996477,,,,,,,,,,,,,,,,276.98131310008466,276.98622029996477,278.48310870002024,278.48310870002024,278.4998727000784,,278.8358335001394,f,1,0.3470958999823779,None,,TV21,001,2025-04-01_14h28.58.900,416_EXPERIMENT_PSYCHOPY_AU2220019_AU2220225,2024.2.4,59.33151189039835,2025-04-01 14h33.43.307034 +0530,
