stimulus_image,correct_response,thisN,thisTrialN,thisRepN,key_resp.keys,key_resp.corr,key_resp.rt,key_resp.duration,loop.thisRepN,loop.thisTrialN,loop.thisN,loop.thisIndex,thisRow.t,notes,guide.started,instructions.started,ins_resp.started,guide.stopped,ins_resp.keys,ins_resp.rt,ins_resp.duration,guide_2.started,text.started,key_resp_2.started,guide_2.stopped,key_resp_2.keys,key_resp_2.rt,key_resp_2.duration,trial.started,fixation.started,image.started,key_resp.started,fixation.stopped,image.stopped,trial.stopped,loop.key_resp.keys,loop.key_resp.corr,key_resp.stopped,loop.key_resp.rt,loop.key_resp.duration,participant,session,date,expName,psychopyVersion,frameRate,expStart,
,,,,,,,,,,,,,,,0.0036143000470474362,0.009353099972940981,0.009353099972940981,37.09224509994965,space,37.06299280002713,None,,,,,,,,,,,,,,,,,,,,VJ76,102,2025-04-01_10h16.40.559,416_EXPERIMENT_PSYCHOPY_AU2220019_AU2220225,2024.2.4,59.85418324333287,2025-04-01 10h22.03.323347 +0530,
,,,,,,,,,,,,,,,,,,,,,,37.09234059997834,37.098597800009884,37.098597800009884,47.300331500009634,space,10.193067300016992,None,,,,,,,,,,,,,VJ76,102,2025-04-01_10h16.40.559,416_EXPERIMENT_PSYCHOPY_AU2220019_AU2220225,2024.2.4,59.85418324333287,2025-04-01 10h22.03.323347 +0530,
surprise.jpg,s,0,0,0,None,0,,,0,0,0,1,47.49236789997667,,,,,,,,,,,,,,,,47.457470900029875,47.49236789997667,48.84495179995429,48.84495179995429,48.9932117999997,49.36068509996403,49.56019029999152,None,0,,,,VJ76,102,2025-04-01_10h16.40.559,416_EXPERIMENT_PSYCHOPY_AU2220019_AU2220225,2024.2.4,59.85418324333287,2025-04-01 10h22.03.323347 +0530,
surprise_upper_blur.jpg,s,1,1,0,None,0,,,0,1,1,4,49.578280200017616,,,,,,,,,,,,,,,,49.57364720001351,49.578280200017616,51.05973290000111,51.05973290000111,51.09265060001053,51.56012399995234,51.793361000018194,None,0,51.810669300029986,,,VJ76,102,2025-04-01_10h16.40.559,416_EXPERIMENT_PSYCHOPY_AU2220019_AU2220225,2024.2.4,59.85418324333287,2025-04-01 10h22.03.323347 +0530,
surprise_lower_blur.jpg,s,2,2,0,None,0,,,0,2,2,5,51.810669300029986,,,,,,,,,,,,,,,,51.806651500053704,51.810669300029986,53.30959379998967,53.30959379998967,53.30959379998967,53.80931030004285,54.04303439997602,None,0,54.0606716000475,,,VJ76,102,2025-04-01_10h16.40.559,416_EXPERIMENT_PSYCHOPY_AU2220019_AU2220225,2024.2.4,59.85418324333287,2025-04-01 10h22.03.323347 +0530,
fear_upper_blur.jpg,f,3,3,0,None,0,,,0,3,3,2,54.0606716000475,,,,,,,,,,,,,,,,54.05614650005009,54.0606716000475,55.5605985999573,55.5605985999573,55.5605985999573,56.075961200054735,56.29756209999323,None,0,56.31442629999947,,,VJ76,102,2025-04-01_10h16.40.559,416_EXPERIMENT_PSYCHOPY_AU2220019_AU2220225,2024.2.4,59.85418324333287,2025-04-01 10h22.03.323347 +0530,
fear_lower_blur.jpg,f,4,4,0,None,0,,,0,4,4,3,56.31442629999947,,,,,,,,,,,,,,,,56.310345600009896,56.31442629999947,57.8105500000529,57.8105500000529,57.827544900006615,58.32574530004058,58.5466375000542,None,0,58.56627710000612,,,VJ76,102,2025-04-01_10h16.40.559,416_EXPERIMENT_PSYCHOPY_AU2220019_AU2220225,2024.2.4,59.85418324333287,2025-04-01 10h22.03.323347 +0530,
fear.jpg,f,5,5,0,None,0,,,0,5,5,0,58.56627710000612,,,,,,,,,,,,,,,,58.5615051999921,58.56627710000612,60.06060419999994,60.06060419999994,60.078010600060225,60.57669040001929,60.809210199979134,None,0,,,,VJ76,102,2025-04-01_10h16.40.559,416_EXPERIMENT_PSYCHOPY_AU2220019_AU2220225,2024.2.4,59.85418324333287,2025-04-01 10h22.03.323347 +0530,
fear.jpg,f,6,0,1,None,0,,,1,0,6,0,60.82724350003991,,,,,,,,,,,,,,,,60.82293619995471,60.82724350003991,62.31222820002586,62.31222820002586,62.32721310004126,62.826459700008854,63.05949929996859,None,0,,,,VJ76,102,2025-04-01_10h16.40.559,416_EXPERIMENT_PSYCHOPY_AU2220019_AU2220225,2024.2.4,59.85418324333287,2025-04-01 10h22.03.323347 +0530,
fear_upper_blur.jpg,f,7,1,1,None,0,,,1,1,7,2,63.07650950003881,,,,,,,,,,,,,,,,63.071916199987754,63.07650950003881,64.5597605999792,64.5597605999792,64.57611080002971,65.05927219998557,65.29796800005715,None,0,65.315767699969,,,VJ76,102,2025-04-01_10h16.40.559,416_EXPERIMENT_PSYCHOPY_AU2220019_AU2220225,2024.2.4,59.85418324333287,2025-04-01 10h22.03.323347 +0530,
surprise_lower_blur.jpg,s,8,2,1,f,0,0.4347639000043273,None,1,2,8,5,65.315767699969,,,,,,,,,,,,,,,,65.31105569994543,65.315767699969,66.81070629996248,66.81070629996248,66.82729249994736,,67.26202669995837,f,0,,0.4347639000043273,None,VJ76,102,2025-04-01_10h16.40.559,416_EXPERIMENT_PSYCHOPY_AU2220019_AU2220225,2024.2.4,59.85418324333287,2025-04-01 10h22.03.323347 +0530,
surprise.jpg,s,9,3,1,None,0,,,1,3,9,1,67.28087490005419,,,,,,,,,,,,,,,,67.27551009994932,67.28087490005419,68.77740140003152,68.77740140003152,68.79339480004273,69.27612459997181,69.51368159998674,None,0,69.540020299959,,,VJ76,102,2025-04-01_10h16.40.559,416_EXPERIMENT_PSYCHOPY_AU2220019_AU2220225,2024.2.4,59.85418324333287,2025-04-01 10h22.03.323347 +0530,
fear_lower_blur.jpg,f,10,4,1,None,0,,,1,4,10,3,69.540020299959,,,,,,,,,,,,,,,,69.53486550005618,69.540020299959,71.02605520002544,71.02605520002544,71.04339260002598,71.52553290000651,71.76363649999257,None,0,71.78742379997857,,,VJ76,102,2025-04-01_10h16.40.559,416_EXPERIMENT_PSYCHOPY_AU2220019_AU2220225,2024.2.4,59.85418324333287,2025-04-01 10h22.03.323347 +0530,
surprise_upper_blur.jpg,s,11,5,1,f,0,0.5224231000756845,None,1,5,11,4,71.78742379997857,,,,,,,,,,,,,,,,71.78274299995974,71.78742379997857,73.27603649999946,73.27603649999946,73.29311179998331,73.77574529999401,73.80987380002625,f,0,,0.5224231000756845,None,VJ76,102,2025-04-01_10h16.40.559,416_EXPERIMENT_PSYCHOPY_AU2220019_AU2220225,2024.2.4,59.85418324333287,2025-04-01 10h22.03.323347 +0530,
fear.jpg,f,12,0,2,None,0,,,2,0,12,0,73.82817939994857,,,,,,,,,,,,,,,,73.82333629997447,73.82817939994857,75.30986519996077,75.30986519996077,75.34268949995749,75.80897570005618,76.04291610000655,None,0,76.059027899988,,,VJ76,102,2025-04-01_10h16.40.559,416_EXPERIMENT_PSYCHOPY_AU2220019_AU2220225,2024.2.4,59.85418324333287,2025-04-01 10h22.03.323347 +0530,
fear_upper_blur.jpg,f,13,1,2,None,0,,,2,1,13,2,76.059027899988,,,,,,,,,,,,,,,,76.05395870003849,76.059027899988,77.57643490005285,77.57643490005285,77.55926170002203,78.07552670000587,78.32544409995899,None,0,,,,VJ76,102,2025-04-01_10h16.40.559,416_EXPERIMENT_PSYCHOPY_AU2220019_AU2220225,2024.2.4,59.85418324333287,2025-04-01 10h22.03.323347 +0530,
surprise_upper_blur.jpg,s,14,2,2,None,0,,,2,2,14,4,78.34261809999589,,,,,,,,,,,,,,,,78.33798199996818,78.34261809999589,79.80955500004347,79.80955500004347,79.84279420005623,80.3093055000063,80.54278809996322,None,0,80.56074570002966,,,VJ76,102,2025-04-01_10h16.40.559,416_EXPERIMENT_PSYCHOPY_AU2220019_AU2220225,2024.2.4,59.85418324333287,2025-04-01 10h22.03.323347 +0530,
surprise_lower_blur.jpg,s,15,3,2,f,0,0.4923003999283537,None,2,3,15,5,80.56074570002966,,,,,,,,,,,,,,,,80.55674769997131,80.57546730001923,82.05983559996821,82.05983559996821,82.07560390001163,82.55900120001752,82.56080199999269,f,0,,0.4923003999283537,None,VJ76,102,2025-04-01_10h16.40.559,416_EXPERIMENT_PSYCHOPY_AU2220019_AU2220225,2024.2.4,59.85418324333287,2025-04-01 10h22.03.323347 +0530,
fear_lower_blur.jpg,f,16,4,2,None,0,,,2,4,16,3,82.58051090000663,,,,,,,,,,,,,,,,82.57495719997678,82.58051090000663,84.08111489994917,84.08111489994917,84.09261900000274,84.59230699995533,84.82592430000659,None,0,,,,VJ76,102,2025-04-01_10h16.40.559,416_EXPERIMENT_PSYCHOPY_AU2220019_AU2220225,2024.2.4,59.85418324333287,2025-04-01 10h22.03.323347 +0530,
surprise.jpg,s,17,5,2,None,0,,,2,5,17,1,84.84327229997143,,,,,,,,,,,,,,,,84.83963219996076,84.84327229997143,86.32758140005171,86.32758140005171,86.34343290003017,86.84307209996041,87.06198200001381,None,0,,,,VJ76,102,2025-04-01_10h16.40.559,416_EXPERIMENT_PSYCHOPY_AU2220019_AU2220225,2024.2.4,59.85418324333287,2025-04-01 10h22.03.323347 +0530,
surprise.jpg,s,18,0,3,None,0,,,3,0,18,1,87.08941789995879,,,,,,,,,,,,,,,,87.08435699995607,87.08941789995879,88.56003229995258,88.56003229995258,88.59316529997159,89.05909330002032,89.29815990000498,None,0,89.31627670000307,,,VJ76,102,2025-04-01_10h16.40.559,416_EXPERIMENT_PSYCHOPY_AU2220019_AU2220225,2024.2.4,59.85418324333287,2025-04-01 10h22.03.323347 +0530,
surprise_lower_blur.jpg,s,19,1,3,None,0,,,3,1,19,5,89.31627670000307,,,,,,,,,,,,,,,,89.31145070004277,89.31627670000307,90.8098697999958,90.8098697999958,90.82679840002675,91.30977149994578,91.54674659995362,None,0,91.56371939997189,,,VJ76,102,2025-04-01_10h16.40.559,416_EXPERIMENT_PSYCHOPY_AU2220019_AU2220225,2024.2.4,59.85418324333287,2025-04-01 10h22.03.323347 +0530,
fear_upper_blur.jpg,f,20,2,3,f,1,0.42961729993112385,None,3,2,20,2,91.56371939997189,,,,,,,,,,,,,,,,91.55936990003102,91.57554670004174,93.07713989994954,93.07713989994954,93.07713989994954,,93.51785960001871,f,1,,0.42961729993112385,None,VJ76,102,2025-04-01_10h16.40.559,416_EXPERIMENT_PSYCHOPY_AU2220019_AU2220225,2024.2.4,59.85418324333287,2025-04-01 10h22.03.323347 +0530,
fear_lower_blur.jpg,f,21,3,3,None,0,,,3,3,21,3,93.54243090003729,,,,,,,,,,,,,,,,93.53639100003056,93.54243090003729,95.026149500045,95.026149500045,95.0426512999693,95.52549290005118,95.76422879996244,None,0,95.78967580001336,,,VJ76,102,2025-04-01_10h16.40.559,416_EXPERIMENT_PSYCHOPY_AU2220019_AU2220225,2024.2.4,59.85418324333287,2025-04-01 10h22.03.323347 +0530,
surprise_upper_blur.jpg,s,22,4,3,s,1,0.37777030002325773,None,3,4,22,4,95.78967580001336,,,,,,,,,,,,,,,,95.78441079996992,95.78967580001336,97.27708150004037,97.27708150004037,97.29297199996654,,97.66802790004294,s,1,,0.37777030002325773,None,VJ76,102,2025-04-01_10h16.40.559,416_EXPERIMENT_PSYCHOPY_AU2220019_AU2220225,2024.2.4,59.85418324333287,2025-04-01 10h22.03.323347 +0530,
fear.jpg,f,23,5,3,f,1,0.3916025999933481,None,3,5,23,0,97.686714499956,,,,,,,,,,,,,,,,97.68195969995577,97.686714499956,99.17600640002638,99.17600640002638,99.1929141000146,,99.57708109996747,f,1,,0.3916025999933481,None,VJ76,102,2025-04-01_10h16.40.559,416_EXPERIMENT_PSYCHOPY_AU2220019_AU2220225,2024.2.4,59.85418324333287,2025-04-01 10h22.03.323347 +0530,
surprise_upper_blur.jpg,s,24,0,4,None,0,,,4,0,24,4,99.59601740003563,,,,,,,,,,,,,,,,99.5908836000599,99.59601740003563,101.09298990003299,101.09298990003299,101.1093194000423,101.59261789999437,101.82699390000198,None,0,101.86133360001259,,,VJ76,102,2025-04-01_10h16.40.559,416_EXPERIMENT_PSYCHOPY_AU2220019_AU2220225,2024.2.4,59.85418324333287,2025-04-01 10h22.03.323347 +0530,
surprise.jpg,s,25,1,4,s,1,0.5044962000101805,None,4,1,25,1,101.86133360001259,,,,,,,,,,,,,,,,101.85131399997044,101.86133360001259,103.34283089998644,103.34283089998644,103.37587420002092,103.84227579995058,103.86084540002048,s,1,,0.5044962000101805,None,VJ76,102,2025-04-01_10h16.40.559,416_EXPERIMENT_PSYCHOPY_AU2220019_AU2220225,2024.2.4,59.85418324333287,2025-04-01 10h22.03.323347 +0530,
fear_upper_blur.jpg,f,26,2,4,f,1,0.6329775999765843,None,4,2,26,2,103.87938399997074,,,,,,,,,,,,,,,,103.87372909998521,103.87938399997074,105.3773996999953,105.3773996999953,105.3926167000318,105.87572999997064,106.02023220004048,f,1,,0.6329775999765843,None,VJ76,102,2025-04-01_10h16.40.559,416_EXPERIMENT_PSYCHOPY_AU2220019_AU2220225,2024.2.4,59.85418324333287,2025-04-01 10h22.03.323347 +0530,
fear.jpg,f,27,3,4,f,1,0.5822032999712974,None,4,3,27,0,106.05012110003736,,,,,,,,,,,,,,,,106.04440590005834,106.05012110003736,107.52648240001872,107.52648240001872,107.5594723999966,108.02585900004487,108.11277340003289,f,1,,0.5822032999712974,None,VJ76,102,2025-04-01_10h16.40.559,416_EXPERIMENT_PSYCHOPY_AU2220019_AU2220225,2024.2.4,59.85418324333287,2025-04-01 10h22.03.323347 +0530,
fear_lower_blur.jpg,f,28,4,4,None,0,,,4,4,28,3,108.13115539995488,,,,,,,,,,,,,,,,108.12670020002406,108.13115539995488,109.62665059999563,109.62665059999563,109.64343469997402,110.12572490004823,110.36226319998968,None,0,110.37881180003751,,,VJ76,102,2025-04-01_10h16.40.559,416_EXPERIMENT_PSYCHOPY_AU2220019_AU2220225,2024.2.4,59.85418324333287,2025-04-01 10h22.03.323347 +0530,
surprise_lower_blur.jpg,s,29,5,4,s,1,0.6762353000231087,None,4,5,29,5,110.37881180003751,,,,,,,,,,,,,,,,110.37353049998637,110.37881180003751,111.87646449997555,111.87646449997555,111.8929525000276,112.37550309998915,112.56108779995702,s,1,,0.6762353000231087,None,VJ76,102,2025-04-01_10h16.40.559,416_EXPERIMENT_PSYCHOPY_AU2220019_AU2220225,2024.2.4,59.85418324333287,2025-04-01 10h22.03.323347 +0530,
surprise_upper_blur.jpg,s,30,0,5,f,0,0.5744594000279903,None,5,0,30,4,112.58730480005033,,,,,,,,,,,,,,,,112.5756168999942,112.58730480005033,114.07687480002642,114.07687480002642,114.09283810004126,114.57534590002615,114.66049649997149,f,0,,0.5744594000279903,None,VJ76,102,2025-04-01_10h16.40.559,416_EXPERIMENT_PSYCHOPY_AU2220019_AU2220225,2024.2.4,59.85418324333287,2025-04-01 10h22.03.323347 +0530,
surprise_lower_blur.jpg,s,31,1,5,s,1,0.5936889000004157,None,5,1,31,5,114.67769629997201,,,,,,,,,,,,,,,,114.67270310001913,114.67769629997201,116.17644549999386,116.17644549999386,116.19278469996061,116.6754955999786,116.77780779998284,s,1,,0.5936889000004157,None,VJ76,102,2025-04-01_10h16.40.559,416_EXPERIMENT_PSYCHOPY_AU2220019_AU2220225,2024.2.4,59.85418324333287,2025-04-01 10h22.03.323347 +0530,
fear.jpg,f,32,2,5,s,0,0.5842918999260291,None,5,2,32,0,116.79733480000868,,,,,,,,,,,,,,,,116.7914168999996,116.79733480000868,118.29337660002057,118.29337660002057,118.31019490002654,118.79227079998236,118.8812471999554,s,0,,0.5842918999260291,None,VJ76,102,2025-04-01_10h16.40.559,416_EXPERIMENT_PSYCHOPY_AU2220019_AU2220225,2024.2.4,59.85418324333287,2025-04-01 10h22.03.323347 +0530,
fear_lower_blur.jpg,f,33,3,5,None,0,,,5,3,33,3,118.8991983999731,,,,,,,,,,,,,,,,118.89447299996391,118.8991983999731,120.3926233999664,120.3926233999664,120.41038440004922,120.89306549995672,121.12936250003986,None,0,121.16442899999674,,,VJ76,102,2025-04-01_10h16.40.559,416_EXPERIMENT_PSYCHOPY_AU2220019_AU2220225,2024.2.4,59.85418324333287,2025-04-01 10h22.03.323347 +0530,
surprise.jpg,s,34,4,5,s,1,0.6192548000253737,None,5,4,34,1,121.16442899999674,,,,,,,,,,,,,,,,121.15934590005782,121.16442899999674,122.64446099998895,122.64446099998895,122.67626049998216,123.15975280001294,123.27778470003977,s,1,,0.6192548000253737,None,VJ76,102,2025-04-01_10h16.40.559,416_EXPERIMENT_PSYCHOPY_AU2220019_AU2220225,2024.2.4,59.85418324333287,2025-04-01 10h22.03.323347 +0530,
fear_upper_blur.jpg,f,35,5,5,f,1,0.34360430005472153,None,5,5,35,2,123.2949982000282,,,,,,,,,,,,,,,,123.28996189997997,123.2949982000282,124.7927698000567,124.7927698000567,124.80929470004048,,125.14421209995635,f,1,,0.34360430005472153,None,VJ76,102,2025-04-01_10h16.40.559,416_EXPERIMENT_PSYCHOPY_AU2220019_AU2220225,2024.2.4,59.85418324333287,2025-04-01 10h22.03.323347 +0530,
surprise.jpg,s,36,0,6,s,1,0.606353500043042,None,6,0,36,1,125.16266689996701,,,,,,,,,,,,,,,,125.15711410006043,125.16266689996701,126.64478259999305,126.64478259999305,126.67682880000211,127.15941700001713,127.26905440003611,s,1,,0.606353500043042,None,VJ76,102,2025-04-01_10h16.40.559,416_EXPERIMENT_PSYCHOPY_AU2220019_AU2220225,2024.2.4,59.85418324333287,2025-04-01 10h22.03.323347 +0530,
fear.jpg,f,37,1,6,f,1,0.3851912999525666,None,6,1,37,0,127.29402809997555,,,,,,,,,,,,,,,,127.28807140002027,127.29402809997555,128.77659250004217,128.77659250004217,128.79331169999205,,129.16945679998025,f,1,,0.3851912999525666,None,VJ76,102,2025-04-01_10h16.40.559,416_EXPERIMENT_PSYCHOPY_AU2220019_AU2220225,2024.2.4,59.85418324333287,2025-04-01 10h22.03.323347 +0530,
fear_lower_blur.jpg,f,38,2,6,f,1,0.6980766999768093,None,6,2,38,3,129.18747560004704,,,,,,,,,,,,,,,,129.18229629995767,129.18747560004704,130.67637410003226,130.67637410003226,130.69257810001727,131.17566369997803,131.37778300000355,f,1,,0.6980766999768093,None,VJ76,102,2025-04-01_10h16.40.559,416_EXPERIMENT_PSYCHOPY_AU2220019_AU2220225,2024.2.4,59.85418324333287,2025-04-01 10h22.03.323347 +0530,
surprise_lower_blur.jpg,s,39,3,6,s,1,0.3895799999590963,None,6,3,39,5,131.3946998999454,,,,,,,,,,,,,,,,131.39013710001018,131.3946998999454,132.8926943000406,132.8926943000406,132.90945669997018,,133.29452979995403,s,1,,0.3895799999590963,None,VJ76,102,2025-04-01_10h16.40.559,416_EXPERIMENT_PSYCHOPY_AU2220019_AU2220225,2024.2.4,59.85418324333287,2025-04-01 10h22.03.323347 +0530,
fear_upper_blur.jpg,f,40,4,6,f,1,0.3960397000191733,None,6,4,40,2,133.30878459999803,,,,,,,,,,,,,,,,133.30419729999267,133.30878459999803,134.80924329999834,134.80924329999834,134.80924329999834,,135.21110860002227,f,1,,0.3960397000191733,None,VJ76,102,2025-04-01_10h16.40.559,416_EXPERIMENT_PSYCHOPY_AU2220019_AU2220225,2024.2.4,59.85418324333287,2025-04-01 10h22.03.323347 +0530,
surprise_upper_blur.jpg,s,41,5,6,s,1,0.7276591999689117,None,6,5,41,4,135.2287771999836,,,,,,,,,,,,,,,,135.22315550001804,135.2287771999836,136.7262537999777,136.7262537999777,136.7427002999466,137.22560330003034,137.45987709995825,s,1,,0.7276591999689117,None,VJ76,102,2025-04-01_10h16.40.559,416_EXPERIMENT_PSYCHOPY_AU2220019_AU2220225,2024.2.4,59.85418324333287,2025-04-01 10h22.03.323347 +0530,
fear_upper_blur.jpg,f,42,0,7,f,1,0.4719452999997884,None,7,0,42,2,137.47915509995073,,,,,,,,,,,,,,,,137.47243620001245,137.47915509995073,138.96024579997174,138.96024579997174,138.99326889996883,139.46327129995916,139.445172799984,f,1,,0.4719452999997884,None,VJ76,102,2025-04-01_10h16.40.559,416_EXPERIMENT_PSYCHOPY_AU2220019_AU2220225,2024.2.4,59.85418324333287,2025-04-01 10h22.03.323347 +0530,
surprise_lower_blur.jpg,s,43,1,7,s,1,0.4624265000456944,None,7,1,43,5,139.46327129995916,,,,,,,,,,,,,,,,139.458234300022,139.46327129995916,140.96035229996778,140.96035229996778,140.97702470002696,,141.42813879996538,s,1,,0.4624265000456944,None,VJ76,102,2025-04-01_10h16.40.559,416_EXPERIMENT_PSYCHOPY_AU2220019_AU2220225,2024.2.4,59.85418324333287,2025-04-01 10h22.03.323347 +0530,
fear.jpg,f,44,2,7,f,1,0.44547989999409765,None,7,2,44,0,141.4450477999635,,,,,,,,,,,,,,,,141.44042770005763,141.4450477999635,142.94302879995666,142.94302879995666,142.95917190006003,,143.3946834000526,f,1,,0.44547989999409765,None,VJ76,102,2025-04-01_10h16.40.559,416_EXPERIMENT_PSYCHOPY_AU2220019_AU2220225,2024.2.4,59.85418324333287,2025-04-01 10h22.03.323347 +0530,
surprise_upper_blur.jpg,s,45,3,7,None,0,,,7,3,45,4,143.41217450005934,,,,,,,,,,,,,,,,143.4068368000444,143.41217450005934,144.91016520000994,144.91016520000994,144.9271578999469,145.4100358999567,145.65875309996773,None,0,,,,VJ76,102,2025-04-01_10h16.40.559,416_EXPERIMENT_PSYCHOPY_AU2220019_AU2220225,2024.2.4,59.85418324333287,2025-04-01 10h22.03.323347 +0530,
surprise.jpg,s,46,4,7,None,0,,,7,4,46,1,145.67640070000198,,,,,,,,,,,,,,,,145.6691695000045,145.67640070000198,147.15973730001133,147.15973730001133,147.17697380005848,147.66013360000215,147.89740530005656,None,0,147.9258066000184,,,VJ76,102,2025-04-01_10h16.40.559,416_EXPERIMENT_PSYCHOPY_AU2220019_AU2220225,2024.2.4,59.85418324333287,2025-04-01 10h22.03.323347 +0530,
fear_lower_blur.jpg,f,47,5,7,f,1,0.38040210003964603,None,7,5,47,3,147.9258066000184,,,,,,,,,,,,,,,,147.92099649994634,147.9258066000184,149.41081400006078,149.41081400006078,149.42758729995694,,149.8017620999599,f,1,,0.38040210003964603,None,VJ76,102,2025-04-01_10h16.40.559,416_EXPERIMENT_PSYCHOPY_AU2220019_AU2220225,2024.2.4,59.85418324333287,2025-04-01 10h22.03.323347 +0530,
surprise_lower_blur.jpg,s,48,0,8,f,0,0.4435105000156909,None,8,0,48,5,149.82461679994594,,,,,,,,,,,,,,,,149.81807519996073,149.82461679994594,151.31054199999198,151.31054199999198,151.32665790000465,,151.76658749999478,f,0,,0.4435105000156909,None,VJ76,102,2025-04-01_10h16.40.559,416_EXPERIMENT_PSYCHOPY_AU2220019_AU2220225,2024.2.4,59.85418324333287,2025-04-01 10h22.03.323347 +0530,
fear.jpg,f,49,1,8,s,0,0.4897316999267787,None,8,1,49,0,151.7982556000352,,,,,,,,,,,,,,,,151.79184940003324,151.7982556000352,153.27710269996896,153.27710269996896,153.3103358000517,153.77698289998807,153.78463430004194,s,0,,0.4897316999267787,None,VJ76,102,2025-04-01_10h16.40.559,416_EXPERIMENT_PSYCHOPY_AU2220019_AU2220225,2024.2.4,59.85418324333287,2025-04-01 10h22.03.323347 +0530,
surprise.jpg,s,50,2,8,f,0,0.5540353000396863,None,8,2,50,1,153.81304349994753,,,,,,,,,,,,,,,,153.80579450004734,153.81304349994753,155.29261779994704,155.29261779994704,155.32639029994607,155.792869900004,155.8676875999663,f,0,,0.5540353000396863,None,VJ76,102,2025-04-01_10h16.40.559,416_EXPERIMENT_PSYCHOPY_AU2220019_AU2220225,2024.2.4,59.85418324333287,2025-04-01 10h22.03.323347 +0530,
fear_lower_blur.jpg,f,51,3,8,None,0,,,8,3,51,3,155.88524289999623,,,,,,,,,,,,,,,,155.88057739997748,155.88524289999623,157.3763930000132,157.3763930000132,157.3929696000414,157.87721059995238,158.11091419996228,None,0,158.12843349995092,,,VJ76,102,2025-04-01_10h16.40.559,416_EXPERIMENT_PSYCHOPY_AU2220019_AU2220225,2024.2.4,59.85418324333287,2025-04-01 10h22.03.323347 +0530,
fear_upper_blur.jpg,f,52,4,8,f,1,0.5335110999876633,None,8,4,52,2,158.12843349995092,,,,,,,,,,,,,,,,158.12364360003266,158.12843349995092,159.6281318999827,159.6281318999827,159.64419330004603,160.14454580005258,160.17765089997556,f,1,,0.5335110999876633,None,VJ76,102,2025-04-01_10h16.40.559,416_EXPERIMENT_PSYCHOPY_AU2220019_AU2220225,2024.2.4,59.85418324333287,2025-04-01 10h22.03.323347 +0530,
surprise_upper_blur.jpg,s,53,5,8,s,1,0.5488101000664756,None,8,5,53,4,160.1955746000167,,,,,,,,,,,,,,,,160.19130359997507,160.1955746000167,161.69276240002364,161.69276240002364,161.70926759997383,162.19240629998967,162.2558484999463,s,1,,0.5488101000664756,None,VJ76,102,2025-04-01_10h16.40.559,416_EXPERIMENT_PSYCHOPY_AU2220019_AU2220225,2024.2.4,59.85418324333287,2025-04-01 10h22.03.323347 +0530,
fear_upper_blur.jpg,f,54,0,9,f,1,0.6312184000853449,None,9,0,54,2,162.27616130001843,,,,,,,,,,,,,,,,162.26999029994477,162.27616130001843,163.7603532000212,163.7603532000212,163.77658479998354,164.25987750000786,164.39474540005904,f,1,,0.6312184000853449,None,VJ76,102,2025-04-01_10h16.40.559,416_EXPERIMENT_PSYCHOPY_AU2220019_AU2220225,2024.2.4,59.85418324333287,2025-04-01 10h22.03.323347 +0530,
surprise_lower_blur.jpg,s,55,1,9,s,1,0.6476163000334054,None,9,1,55,5,164.41263649996836,,,,,,,,,,,,,,,,164.40704469999764,164.41263649996836,165.9104579000268,165.9104579000268,165.9277176000178,166.41038869996555,166.56280950002838,s,1,,0.6476163000334054,None,VJ76,102,2025-04-01_10h16.40.559,416_EXPERIMENT_PSYCHOPY_AU2220019_AU2220225,2024.2.4,59.85418324333287,2025-04-01 10h22.03.323347 +0530,
fear.jpg,f,56,2,9,f,1,0.445585000095889,None,9,2,56,0,166.58183120004833,,,,,,,,,,,,,,,,166.57671799999662,166.58183120004833,168.0767275999533,168.0767275999533,168.09378530003596,,168.52897430001758,f,1,,0.445585000095889,None,VJ76,102,2025-04-01_10h16.40.559,416_EXPERIMENT_PSYCHOPY_AU2220019_AU2220225,2024.2.4,59.85418324333287,2025-04-01 10h22.03.323347 +0530,
fear_lower_blur.jpg,f,57,3,9,None,0,,,9,3,57,3,168.54732649994548,,,,,,,,,,,,,,,,168.54188799997792,168.54732649994548,170.04391530004796,170.04391530004796,170.0603258999763,170.54240449995268,170.7921983000124,None,0,,,,VJ76,102,2025-04-01_10h16.40.559,416_EXPERIMENT_PSYCHOPY_AU2220019_AU2220225,2024.2.4,59.85418324333287,2025-04-01 10h22.03.323347 +0530,
surprise.jpg,s,58,4,9,s,1,0.35318430000916123,None,9,4,58,1,170.81056919996627,,,,,,,,,,,,,,,,170.80620420002379,170.81056919996627,172.29257080005482,172.29257080005482,172.32609780004714,,172.6603890999686,s,1,,0.35318430000916123,None,VJ76,102,2025-04-01_10h16.40.559,416_EXPERIMENT_PSYCHOPY_AU2220019_AU2220225,2024.2.4,59.85418324333287,2025-04-01 10h22.03.323347 +0530,
surprise_upper_blur.jpg,s,59,5,9,f,0,0.4171683000167832,None,9,5,59,4,172.67581679997966,,,,,,,,,,,,,,,,172.6712098000571,172.67581679997966,174.17579999996815,174.17579999996815,174.17579999996815,,174.61071070004255,f,0,,0.4171683000167832,None,VJ76,102,2025-04-01_10h16.40.559,416_EXPERIMENT_PSYCHOPY_AU2220019_AU2220225,2024.2.4,59.85418324333287,2025-04-01 10h22.03.323347 +0530,
fear_lower_blur.jpg,f,60,0,10,f,1,0.6025599000276998,None,10,0,60,3,174.62575949996244,,,,,,,,,,,,,,,,174.62060849997215,174.62575949996244,176.1259495000122,176.1259495000122,176.1259495000122,176.62556680000853,176.74339089996647,f,1,,0.6025599000276998,None,VJ76,102,2025-04-01_10h16.40.559,416_EXPERIMENT_PSYCHOPY_AU2220019_AU2220225,2024.2.4,59.85418324333287,2025-04-01 10h22.03.323347 +0530,
fear_upper_blur.jpg,f,61,1,10,s,0,0.40797149995341897,None,10,1,61,2,176.7592099000467,,,,,,,,,,,,,,,,176.75321760005318,176.7592099000467,178.24271649995353,178.24271649995353,178.25909099995624,,178.66049939999357,s,0,,0.40797149995341897,None,VJ76,102,2025-04-01_10h16.40.559,416_EXPERIMENT_PSYCHOPY_AU2220019_AU2220225,2024.2.4,59.85418324333287,2025-04-01 10h22.03.323347 +0530,
fear.jpg,f,62,2,10,f,1,0.5434269999386743,None,10,2,62,0,178.6754123000428,,,,,,,,,,,,,,,,178.67044829996303,178.6754123000428,180.17613399995025,180.17613399995025,180.17613399995025,180.67543850000948,180.72635290003382,f,1,,0.5434269999386743,None,VJ76,102,2025-04-01_10h16.40.559,416_EXPERIMENT_PSYCHOPY_AU2220019_AU2220225,2024.2.4,59.85418324333287,2025-04-01 10h22.03.323347 +0530,
surprise_lower_blur.jpg,s,63,3,10,None,0,,,10,3,63,5,180.74268150003627,,,,,,,,,,,,,,,,180.7364270000253,180.74268150003627,182.24277410004288,182.24277410004288,182.24277410004288,182.74223970004823,182.97590580000542,None,0,182.99227659997996,,,VJ76,102,2025-04-01_10h16.40.559,416_EXPERIMENT_PSYCHOPY_AU2220019_AU2220225,2024.2.4,59.85418324333287,2025-04-01 10h22.03.323347 +0530,
surprise.jpg,s,64,4,10,None,0,,,10,4,64,1,182.99227659997996,,,,,,,,,,,,,,,,182.98599519999698,182.99227659997996,184.49273269996047,184.49273269996047,184.49273269996047,184.99252820003312,185.22575900005177,None,0,185.24259290006012,,,VJ76,102,2025-04-01_10h16.40.559,416_EXPERIMENT_PSYCHOPY_AU2220019_AU2220225,2024.2.4,59.85418324333287,2025-04-01 10h22.03.323347 +0530,
surprise_upper_blur.jpg,s,65,5,10,s,1,0.5758079999359325,None,10,5,65,4,185.24259290006012,,,,,,,,,,,,,,,,185.23578290001024,185.24259290006012,186.72625039995182,186.72625039995182,186.7424949000124,187.22671670001,187.3105708999792,s,1,,0.5758079999359325,None,VJ76,102,2025-04-01_10h16.40.559,416_EXPERIMENT_PSYCHOPY_AU2220019_AU2220225,2024.2.4,59.85418324333287,2025-04-01 10h22.03.323347 +0530,
fear.jpg,f,66,0,11,f,1,0.671094199991785,None,11,0,66,0,187.32928569999058,,,,,,,,,,,,,,,,187.32418310001958,187.32928569999058,188.82686969998758,188.82686969998758,188.84366250003222,189.32691149995662,189.51121779996902,f,1,,0.671094199991785,None,VJ76,102,2025-04-01_10h16.40.559,416_EXPERIMENT_PSYCHOPY_AU2220019_AU2220225,2024.2.4,59.85418324333287,2025-04-01 10h22.03.323347 +0530,
fear_upper_blur.jpg,f,67,1,11,None,0,,,11,1,67,2,189.52912880002987,,,,,,,,,,,,,,,,189.52383219997864,189.52912880002987,191.0261703999713,191.0261703999713,191.04298749996815,191.5257800000254,191.760038599954,None,0,191.77733089996036,,,VJ76,102,2025-04-01_10h16.40.559,416_EXPERIMENT_PSYCHOPY_AU2220019_AU2220225,2024.2.4,59.85418324333287,2025-04-01 10h22.03.323347 +0530,
surprise.jpg,s,68,2,11,s,1,0.45584129996132106,None,11,2,68,1,191.77733089996036,,,,,,,,,,,,,,,,191.77375000005122,191.77733089996036,193.27654059999622,193.27654059999622,193.2979829000542,,193.7442008999642,s,1,,0.45584129996132106,None,VJ76,102,2025-04-01_10h16.40.559,416_EXPERIMENT_PSYCHOPY_AU2220019_AU2220225,2024.2.4,59.85418324333287,2025-04-01 10h22.03.323347 +0530,
surprise_upper_blur.jpg,s,69,3,11,s,1,0.6262774999486282,None,11,3,69,4,193.76238169998396,,,,,,,,,,,,,,,,193.75675719999708,193.76238169998396,195.26028339995537,195.26028339995537,195.27656719996594,195.7604135000147,195.89354800002184,s,1,,0.6262774999486282,None,VJ76,102,2025-04-01_10h16.40.559,416_EXPERIMENT_PSYCHOPY_AU2220019_AU2220225,2024.2.4,59.85418324333287,2025-04-01 10h22.03.323347 +0530,
surprise_lower_blur.jpg,s,70,4,11,s,1,0.4277870999649167,None,11,4,70,5,195.91025630000513,,,,,,,,,,,,,,,,195.90581759996712,195.91025630000513,197.40948449994903,197.40948449994903,197.42588490003254,,197.85027179995086,s,1,,0.4277870999649167,None,VJ76,102,2025-04-01_10h16.40.559,416_EXPERIMENT_PSYCHOPY_AU2220019_AU2220225,2024.2.4,59.85418324333287,2025-04-01 10h22.03.323347 +0530,
fear_lower_blur.jpg,f,71,5,11,f,1,0.44527150003705174,None,11,5,71,3,197.87833700003102,,,,,,,,,,,,,,,,197.87244730000384,197.87833700003102,199.3606540999608,199.3606540999608,199.39322660001926,,199.81136439996772,f,1,,0.44527150003705174,None,VJ76,102,2025-04-01_10h16.40.559,416_EXPERIMENT_PSYCHOPY_AU2220019_AU2220225,2024.2.4,59.85418324333287,2025-04-01 10h22.03.323347 +0530,
fear_lower_blur.jpg,f,72,0,12,None,0,,,12,0,72,3,199.85043740004767,,,,,,,,,,,,,,,,199.83718469995074,199.85043740004767,201.32614380004816,201.32614380004816,201.35955000005197,201.82540880003944,202.062521200045,None,0,202.08402820001356,,,VJ76,102,2025-04-01_10h16.40.559,416_EXPERIMENT_PSYCHOPY_AU2220019_AU2220225,2024.2.4,59.85418324333287,2025-04-01 10h22.03.323347 +0530,
fear.jpg,f,73,1,12,None,0,,,12,1,73,0,202.08402820001356,,,,,,,,,,,,,,,,202.07915650005452,202.08402820001356,203.57743770000525,203.57743770000525,203.59630760003347,204.07652330002747,204.32614270003978,None,0,,,,VJ76,102,2025-04-01_10h16.40.559,416_EXPERIMENT_PSYCHOPY_AU2220019_AU2220225,2024.2.4,59.85418324333287,2025-04-01 10h22.03.323347 +0530,
surprise_lower_blur.jpg,s,74,2,12,s,1,0.4386429999722168,None,12,2,74,5,204.34241130005103,,,,,,,,,,,,,,,,204.3383858000161,204.34241130005103,205.82700459996704,205.82700459996704,205.84450090001337,,206.284930099966,s,1,,0.4386429999722168,None,VJ76,102,2025-04-01_10h16.40.559,416_EXPERIMENT_PSYCHOPY_AU2220019_AU2220225,2024.2.4,59.85418324333287,2025-04-01 10h22.03.323347 +0530,
surprise_upper_blur.jpg,s,75,3,12,None,0,,,12,3,75,4,206.3112712999573,,,,,,,,,,,,,,,,206.30425339995418,206.3112712999573,207.7934880000539,207.7934880000539,207.8267156999791,208.29327489994466,208.5425499000121,None,0,,,,VJ76,102,2025-04-01_10h16.40.559,416_EXPERIMENT_PSYCHOPY_AU2220019_AU2220225,2024.2.4,59.85418324333287,2025-04-01 10h22.03.323347 +0530,
fear_upper_blur.jpg,f,76,4,12,f,1,0.5235091999638826,None,12,4,76,2,208.57665559998713,,,,,,,,,,,,,,,,208.56681380001828,208.57665559998713,210.0428888000315,210.0428888000315,210.07687450002413,210.54230390000157,210.57769389997702,f,1,,0.5235091999638826,None,VJ76,102,2025-04-01_10h16.40.559,416_EXPERIMENT_PSYCHOPY_AU2220019_AU2220225,2024.2.4,59.85418324333287,2025-04-01 10h22.03.323347 +0530,
surprise.jpg,s,77,5,12,s,1,0.6137970000272617,None,12,5,77,1,210.59891020006035,,,,,,,,,,,,,,,,210.5928993000416,210.59891020006035,212.09271240001544,212.09271240001544,212.10931820003316,212.59189329994842,212.71027499996126,s,1,,0.6137970000272617,None,VJ76,102,2025-04-01_10h16.40.559,416_EXPERIMENT_PSYCHOPY_AU2220019_AU2220225,2024.2.4,59.85418324333287,2025-04-01 10h22.03.323347 +0530,
fear_lower_blur.jpg,f,78,0,13,f,1,0.5302323000505567,None,13,0,78,3,212.7279550000094,,,,,,,,,,,,,,,,212.7227343999548,212.7279550000094,214.2280515000457,214.2280515000457,214.24378470005468,214.74232499999925,214.76162600005046,f,1,,0.5302323000505567,None,VJ76,102,2025-04-01_10h16.40.559,416_EXPERIMENT_PSYCHOPY_AU2220019_AU2220225,2024.2.4,59.85418324333287,2025-04-01 10h22.03.323347 +0530,
fear_upper_blur.jpg,f,79,1,13,f,1,0.6650544999865815,None,13,1,79,2,214.78021959995385,,,,,,,,,,,,,,,,214.7743520999793,214.78021959995385,216.26007059996482,216.26007059996482,216.29360950004775,216.7589636000339,216.93710840004496,f,1,,0.6650544999865815,None,VJ76,102,2025-04-01_10h16.40.559,416_EXPERIMENT_PSYCHOPY_AU2220019_AU2220225,2024.2.4,59.85418324333287,2025-04-01 10h22.03.323347 +0530,
surprise_upper_blur.jpg,s,80,2,13,None,0,,,13,2,80,4,216.96192629996222,,,,,,,,,,,,,,,,216.95645159995183,216.96192629996222,218.44255669997074,218.44255669997074,218.4764550999971,218.94208860001527,219.1763679999858,None,0,219.1942550999811,,,VJ76,102,2025-04-01_10h16.40.559,416_EXPERIMENT_PSYCHOPY_AU2220019_AU2220225,2024.2.4,59.85418324333287,2025-04-01 10h22.03.323347 +0530,
surprise_lower_blur.jpg,s,81,3,13,f,0,0.47177810000721365,None,13,3,81,5,219.1942550999811,,,,,,,,,,,,,,,,219.18908040004317,219.1942550999811,220.69334080000408,220.69334080000408,220.71022330003325,221.1988088999642,221.1814210000448,f,0,,0.47177810000721365,None,VJ76,102,2025-04-01_10h16.40.559,416_EXPERIMENT_PSYCHOPY_AU2220019_AU2220225,2024.2.4,59.85418324333287,2025-04-01 10h22.03.323347 +0530,
surprise.jpg,s,82,4,13,s,1,0.6698077000910416,None,13,4,82,1,221.1988088999642,,,,,,,,,,,,,,,,221.1946506999666,221.1988088999642,222.69354939996265,222.69354939996265,222.70938290003687,223.19276700005867,223.3770001999801,s,1,,0.6698077000910416,None,VJ76,102,2025-04-01_10h16.40.559,416_EXPERIMENT_PSYCHOPY_AU2220019_AU2220225,2024.2.4,59.85418324333287,2025-04-01 10h22.03.323347 +0530,
fear.jpg,f,83,5,13,f,1,0.375959699973464,None,13,5,83,0,223.395457000006,,,,,,,,,,,,,,,,223.3907594999764,223.395457000006,224.87750519998372,224.87750519998372,224.91021310002543,,225.26318350003567,f,1,,0.375959699973464,None,VJ76,102,2025-04-01_10h16.40.559,416_EXPERIMENT_PSYCHOPY_AU2220019_AU2220225,2024.2.4,59.85418324333287,2025-04-01 10h22.03.323347 +0530,
fear_lower_blur.jpg,f,84,0,14,f,1,0.6231397999217734,None,14,0,84,3,225.2815724000102,,,,,,,,,,,,,,,,225.27625110000372,225.2815724000102,226.7771572000347,226.7771572000347,226.79350599995814,227.2771735000424,227.41152159997728,f,1,,0.6231397999217734,None,VJ76,102,2025-04-01_10h16.40.559,416_EXPERIMENT_PSYCHOPY_AU2220019_AU2220225,2024.2.4,59.85418324333287,2025-04-01 10h22.03.323347 +0530,
surprise_upper_blur.jpg,s,85,1,14,s,1,0.6332967999624088,None,14,1,85,4,227.4304575000424,,,,,,,,,,,,,,,,227.42520980001427,227.4304575000424,228.92645310005173,228.92645310005173,228.94434729998466,229.42595910001546,229.5775931000244,s,1,,0.6332967999624088,None,VJ76,102,2025-04-01_10h16.40.559,416_EXPERIMENT_PSYCHOPY_AU2220019_AU2220225,2024.2.4,59.85418324333287,2025-04-01 10h22.03.323347 +0530,
fear.jpg,f,86,2,14,f,1,0.37621709995437413,None,14,2,86,0,229.59501739998814,,,,,,,,,,,,,,,,229.5905465000542,229.59501739998814,231.07784649997484,231.07784649997484,231.09269710001536,,231.46157329995185,f,1,,0.37621709995437413,None,VJ76,102,2025-04-01_10h16.40.559,416_EXPERIMENT_PSYCHOPY_AU2220019_AU2220225,2024.2.4,59.85418324333287,2025-04-01 10h22.03.323347 +0530,
fear_upper_blur.jpg,f,87,3,14,f,1,0.5893843000521883,None,14,3,87,2,231.48045150004327,,,,,,,,,,,,,,,,231.47480710002128,231.48045150004327,232.97850870003458,232.97850870003458,232.99349709996022,233.49312170001213,233.57741829997394,f,1,,0.5893843000521883,None,VJ76,102,2025-04-01_10h16.40.559,416_EXPERIMENT_PSYCHOPY_AU2220019_AU2220225,2024.2.4,59.85418324333287,2025-04-01 10h22.03.323347 +0530,
surprise_lower_blur.jpg,s,88,4,14,s,1,0.5629172999178991,None,14,4,88,5,233.59574829996563,,,,,,,,,,,,,,,,233.59044129995164,233.59574829996563,235.09308979997877,235.09308979997877,235.10979530005716,235.591900600004,235.66046529996675,s,1,,0.5629172999178991,None,VJ76,102,2025-04-01_10h16.40.559,416_EXPERIMENT_PSYCHOPY_AU2220019_AU2220225,2024.2.4,59.85418324333287,2025-04-01 10h22.03.323347 +0530,
surprise.jpg,s,89,5,14,f,0,0.5413318000501022,None,14,5,89,1,235.6789098000154,,,,,,,,,,,,,,,,235.67397630005144,235.6789098000154,237.17682849999983,237.17682849999983,237.1931793000549,237.67554440000094,237.72745650005527,f,0,,0.5413318000501022,None,VJ76,102,2025-04-01_10h16.40.559,416_EXPERIMENT_PSYCHOPY_AU2220019_AU2220225,2024.2.4,59.85418324333287,2025-04-01 10h22.03.323347 +0530,
surprise.jpg,s,90,0,15,None,0,,,15,0,90,1,237.74510970001575,,,,,,,,,,,,,,,,237.740779499989,237.74510970001575,239.24297599995043,239.24297599995043,239.25990910001565,239.74305749998894,239.97702790005133,None,0,239.9952261999715,,,VJ76,102,2025-04-01_10h16.40.559,416_EXPERIMENT_PSYCHOPY_AU2220019_AU2220225,2024.2.4,59.85418324333287,2025-04-01 10h22.03.323347 +0530,
surprise_upper_blur.jpg,s,91,1,15,None,0,,,15,1,91,4,239.9952261999715,,,,,,,,,,,,,,,,239.99055300001055,239.9952261999715,241.49324690003414,241.49324690003414,241.5097826999845,241.99240920005832,242.24533920001704,None,0,,,,VJ76,102,2025-04-01_10h16.40.559,416_EXPERIMENT_PSYCHOPY_AU2220019_AU2220225,2024.2.4,59.85418324333287,2025-04-01 10h22.03.323347 +0530,
surprise_lower_blur.jpg,s,92,2,15,s,1,0.428094599978067,None,15,2,92,5,242.27713659999426,,,,,,,,,,,,,,,,242.27041580004152,242.27713659999426,243.7426756999921,243.7426756999921,243.77634019998368,,244.17851760005578,s,1,,0.428094599978067,None,VJ76,102,2025-04-01_10h16.40.559,416_EXPERIMENT_PSYCHOPY_AU2220019_AU2220225,2024.2.4,59.85418324333287,2025-04-01 10h22.03.323347 +0530,
fear.jpg,f,93,3,15,f,1,0.5284276999300346,None,15,3,93,0,244.196168399998,,,,,,,,,,,,,,,,244.19134020002093,244.196168399998,245.69328989996575,245.69328989996575,245.70993050001562,246.19348310003988,246.2327659999719,f,1,,0.5284276999300346,None,VJ76,102,2025-04-01_10h16.40.559,416_EXPERIMENT_PSYCHOPY_AU2220019_AU2220225,2024.2.4,59.85418324333287,2025-04-01 10h22.03.323347 +0530,
fear_lower_blur.jpg,f,94,4,15,f,1,0.5793393000494689,None,15,4,94,3,246.26522770000156,,,,,,,,,,,,,,,,246.25837900000624,246.26522770000156,247.7426925000036,247.7426925000036,247.77632960001938,248.24278119998053,248.32851639995351,f,1,,0.5793393000494689,None,VJ76,102,2025-04-01_10h16.40.559,416_EXPERIMENT_PSYCHOPY_AU2220019_AU2220225,2024.2.4,59.85418324333287,2025-04-01 10h22.03.323347 +0530,
fear_upper_blur.jpg,f,95,5,15,f,1,0.43279670004267246,None,15,5,95,2,248.34789199999068,,,,,,,,,,,,,,,,248.341630000039,248.34789199999068,249.8439510000171,249.8439510000171,249.86050499998964,,250.28112719999626,f,1,,0.43279670004267246,None,VJ76,102,2025-04-01_10h16.40.559,416_EXPERIMENT_PSYCHOPY_AU2220019_AU2220225,2024.2.4,59.85418324333287,2025-04-01 10h22.03.323347 +0530,
surprise_upper_blur.jpg,s,96,0,16,s,1,0.5933220000006258,None,16,0,96,4,250.29918339999858,,,,,,,,,,,,,,,,250.2939416000154,250.29918339999858,251.79294720001053,251.79294720001053,251.80979590001516,252.2922143000178,252.40155209996738,s,1,,0.5933220000006258,None,VJ76,102,2025-04-01_10h16.40.559,416_EXPERIMENT_PSYCHOPY_AU2220019_AU2220225,2024.2.4,59.85418324333287,2025-04-01 10h22.03.323347 +0530,
surprise.jpg,s,97,1,16,f,0,0.46594839997123927,None,16,1,97,1,252.42447590001393,,,,,,,,,,,,,,,,252.41868779994547,252.42447590001393,253.91055140004028,253.91055140004028,253.9276275000302,,254.37946990004275,f,0,,0.46594839997123927,None,VJ76,102,2025-04-01_10h16.40.559,416_EXPERIMENT_PSYCHOPY_AU2220019_AU2220225,2024.2.4,59.85418324333287,2025-04-01 10h22.03.323347 +0530,
fear.jpg,f,98,2,16,f,1,0.711564900004305,None,16,2,98,0,254.3977803000016,,,,,,,,,,,,,,,,254.39291960000992,254.3977803000016,255.8932212999789,255.8932212999789,255.90979960002005,256.3925861000316,256.61085020005703,f,1,,0.711564900004305,None,VJ76,102,2025-04-01_10h16.40.559,416_EXPERIMENT_PSYCHOPY_AU2220019_AU2220225,2024.2.4,59.85418324333287,2025-04-01 10h22.03.323347 +0530,
fear_upper_blur.jpg,f,99,3,16,f,1,0.7098098000278696,None,16,3,99,2,256.6268927999772,,,,,,,,,,,,,,,,256.6216021999717,256.6268927999772,258.1260163000552,258.1260163000552,258.142669999972,258.6259409999475,258.84483079996426,f,1,,0.7098098000278696,None,VJ76,102,2025-04-01_10h16.40.559,416_EXPERIMENT_PSYCHOPY_AU2220019_AU2220225,2024.2.4,59.85418324333287,2025-04-01 10h22.03.323347 +0530,
surprise_lower_blur.jpg,s,100,4,16,s,1,0.4904362999368459,None,16,4,100,5,258.8631856000284,,,,,,,,,,,,,,,,258.8577619000571,258.8631856000284,260.3603505999781,260.3603505999781,260.3771502999589,260.85975209996104,260.8612846999895,s,1,,0.4904362999368459,None,VJ76,102,2025-04-01_10h16.40.559,416_EXPERIMENT_PSYCHOPY_AU2220019_AU2220225,2024.2.4,59.85418324333287,2025-04-01 10h22.03.323347 +0530,
fear_lower_blur.jpg,f,101,5,16,f,1,0.5326017000479624,None,16,5,101,3,260.87701089994516,,,,,,,,,,,,,,,,260.8717002000194,260.87701089994516,262.377297500032,262.377297500032,262.377297500032,262.87632379995193,262.912760599982,f,1,,0.5326017000479624,None,VJ76,102,2025-04-01_10h16.40.559,416_EXPERIMENT_PSYCHOPY_AU2220019_AU2220225,2024.2.4,59.85418324333287,2025-04-01 10h22.03.323347 +0530,
surprise_upper_blur.jpg,s,102,0,17,None,0,,,17,0,102,4,262.9290264999727,,,,,,,,,,,,,,,,262.9239410000155,262.9290264999727,264.42673970002215,264.42673970002215,264.44291890005115,264.9262303999858,265.16157580004074,None,0,265.1816371999448,,,VJ76,102,2025-04-01_10h16.40.559,416_EXPERIMENT_PSYCHOPY_AU2220019_AU2220225,2024.2.4,59.85418324333287,2025-04-01 10h22.03.323347 +0530,
fear.jpg,f,103,1,17,None,0,,,17,1,103,0,265.1816371999448,,,,,,,,,,,,,,,,265.17576689994894,265.1816371999448,266.67745930003,266.67745930003,266.6945547000505,267.17619869997725,267.412015000009,None,0,267.43004030000884,,,VJ76,102,2025-04-01_10h16.40.559,416_EXPERIMENT_PSYCHOPY_AU2220019_AU2220225,2024.2.4,59.85418324333287,2025-04-01 10h22.03.323347 +0530,
fear_lower_blur.jpg,f,104,2,17,None,0,,,17,2,104,3,267.43004030000884,,,,,,,,,,,,,,,,267.42484560003504,267.43004030000884,268.9274868000066,268.9274868000066,268.9441939999815,269.4266488000285,269.6763703000033,None,0,,,,VJ76,102,2025-04-01_10h16.40.559,416_EXPERIMENT_PSYCHOPY_AU2220019_AU2220225,2024.2.4,59.85418324333287,2025-04-01 10h22.03.323347 +0530,
surprise.jpg,s,105,3,17,None,0,,,17,3,105,1,269.6963612999534,,,,,,,,,,,,,,,,269.69091839995235,269.6963612999534,271.1772054999601,271.1772054999601,271.2105971999699,271.67631689994596,271.9108693000162,None,0,271.92759840004146,,,VJ76,102,2025-04-01_10h16.40.559,416_EXPERIMENT_PSYCHOPY_AU2220019_AU2220225,2024.2.4,59.85418324333287,2025-04-01 10h22.03.323347 +0530,
surprise_lower_blur.jpg,s,106,4,17,f,0,0.6509925000136718,None,17,4,106,5,271.92759840004146,,,,,,,,,,,,,,,,271.9230890000472,271.92759840004146,273.42710430000443,273.42710430000443,273.42710430000443,273.9259756000247,274.09439490002114,f,0,,0.6509925000136718,None,VJ76,102,2025-04-01_10h16.40.559,416_EXPERIMENT_PSYCHOPY_AU2220019_AU2220225,2024.2.4,59.85418324333287,2025-04-01 10h22.03.323347 +0530,
fear_upper_blur.jpg,f,107,5,17,None,0,,,17,5,107,2,274.110402100021,,,,,,,,,,,,,,,,274.10518690000754,274.110402100021,275.6105982000008,275.6105982000008,275.6105982000008,276.10974590003025,276.3598157999804,None,0,,,,VJ76,102,2025-04-01_10h16.40.559,416_EXPERIMENT_PSYCHOPY_AU2220019_AU2220225,2024.2.4,59.85418324333287,2025-04-01 10h22.03.323347 +0530,
fear_lower_blur.jpg,f,108,0,18,f,1,0.6173005999298766,None,18,0,108,3,276.3765757000074,,,,,,,,,,,,,,,,276.36988739995286,276.3765757000074,277.8606403999729,277.8606403999729,277.87666059995536,278.35979250003584,278.49398320005275,f,1,,0.6173005999298766,None,VJ76,102,2025-04-01_10h16.40.559,416_EXPERIMENT_PSYCHOPY_AU2220019_AU2220225,2024.2.4,59.85418324333287,2025-04-01 10h22.03.323347 +0530,
surprise_lower_blur.jpg,s,109,1,18,s,1,0.59197419998236,None,18,1,109,5,278.5093745000195,,,,,,,,,,,,,,,,278.5042453999631,278.5093745000195,279.99381300003733,279.99381300003733,280.0101666999981,280.49307970004156,280.59425850003026,s,1,,0.59197419998236,None,VJ76,102,2025-04-01_10h16.40.559,416_EXPERIMENT_PSYCHOPY_AU2220019_AU2220225,2024.2.4,59.85418324333287,2025-04-01 10h22.03.323347 +0530,
fear.jpg,f,110,2,18,f,1,0.5459586998913437,None,18,2,110,0,280.61324960005004,,,,,,,,,,,,,,,,280.60842199996114,280.61324960005004,282.11075210000854,282.11075210000854,282.1266706000315,282.60872260003816,282.66092609998304,f,1,,0.5459586998913437,None,VJ76,102,2025-04-01_10h16.40.559,416_EXPERIMENT_PSYCHOPY_AU2220019_AU2220225,2024.2.4,59.85418324333287,2025-04-01 10h22.03.323347 +0530,
surprise_upper_blur.jpg,s,111,3,18,s,1,0.5270961999194697,None,18,3,111,4,282.67654949997086,,,,,,,,,,,,,,,,282.6714347000234,282.67654949997086,284.17698830005247,284.17698830005247,284.17698830005247,284.6763875000179,284.7116596000269,s,1,,0.5270961999194697,None,VJ76,102,2025-04-01_10h16.40.559,416_EXPERIMENT_PSYCHOPY_AU2220019_AU2220225,2024.2.4,59.85418324333287,2025-04-01 10h22.03.323347 +0530,
surprise.jpg,s,112,4,18,s,1,0.6944980999687687,None,18,4,112,1,284.7309981000144,,,,,,,,,,,,,,,,284.72571190004237,284.7309981000144,286.22768160002306,286.22768160002306,286.2442697000224,286.72674369998276,286.9287940999493,s,1,,0.6944980999687687,None,VJ76,102,2025-04-01_10h16.40.559,416_EXPERIMENT_PSYCHOPY_AU2220019_AU2220225,2024.2.4,59.85418324333287,2025-04-01 10h22.03.323347 +0530,
fear_upper_blur.jpg,f,113,5,18,f,1,0.6765257000224665,None,18,5,113,2,286.9466560999863,,,,,,,,,,,,,,,,286.9412344000302,286.9466560999863,288.44307080004364,288.44307080004364,288.4597037000349,288.9439584000502,289.1329930999782,f,1,,0.6765257000224665,None,VJ76,102,2025-04-01_10h16.40.559,416_EXPERIMENT_PSYCHOPY_AU2220019_AU2220225,2024.2.4,59.85418324333287,2025-04-01 10h22.03.323347 +0530,
surprise_lower_blur.jpg,s,114,0,19,None,0,,,19,0,114,5,289.16402440005913,,,,,,,,,,,,,,,,289.1586441999534,289.16402440005913,290.64319319999777,290.64319319999777,290.67624229996,291.14350430003833,291.3769709999906,None,0,291.3934133000439,,,VJ76,102,2025-04-01_10h16.40.559,416_EXPERIMENT_PSYCHOPY_AU2220019_AU2220225,2024.2.4,59.85418324333287,2025-04-01 10h22.03.323347 +0530,
surprise_upper_blur.jpg,s,115,1,19,s,1,0.667071699979715,None,19,1,115,4,291.3934133000439,,,,,,,,,,,,,,,,291.3897547000088,291.3934133000439,292.8942637,292.8942637,292.9093594000442,293.4092212000396,293.56845420005266,s,1,,0.667071699979715,None,VJ76,102,2025-04-01_10h16.40.559,416_EXPERIMENT_PSYCHOPY_AU2220019_AU2220225,2024.2.4,59.85418324333287,2025-04-01 10h22.03.323347 +0530,
fear_lower_blur.jpg,f,116,2,19,f,1,0.573116600047797,None,19,2,116,3,293.5884121999843,,,,,,,,,,,,,,,,293.58210720005445,293.5884121999843,295.07616840000264,295.07616840000264,295.09260890004225,295.5751521999482,295.6607080999529,f,1,,0.573116600047797,None,VJ76,102,2025-04-01_10h16.40.559,416_EXPERIMENT_PSYCHOPY_AU2220019_AU2220225,2024.2.4,59.85418324333287,2025-04-01 10h22.03.323347 +0530,
fear.jpg,f,117,3,19,s,0,0.6683716999832541,None,19,3,117,0,295.6789940999588,,,,,,,,,,,,,,,,295.6743793999776,295.6789940999588,297.17645020002965,297.17645020002965,297.1928004999645,297.6756242000265,297.8598697000416,s,0,,0.6683716999832541,None,VJ76,102,2025-04-01_10h16.40.559,416_EXPERIMENT_PSYCHOPY_AU2220019_AU2220225,2024.2.4,59.85418324333287,2025-04-01 10h22.03.323347 +0530,
fear_upper_blur.jpg,f,118,4,19,f,1,0.6209883999545127,None,19,4,118,2,297.875908200047,,,,,,,,,,,,,,,,297.8698027000064,297.875908200047,299.3594036999857,299.3594036999857,299.3763430999825,299.8588415000122,299.99381300003733,f,1,,0.6209883999545127,None,VJ76,102,2025-04-01_10h16.40.559,416_EXPERIMENT_PSYCHOPY_AU2220019_AU2220225,2024.2.4,59.85418324333287,2025-04-01 10h22.03.323347 +0530,
surprise.jpg,s,119,5,19,None,0,,,19,5,119,1,300.0116567000514,,,,,,,,,,,,,,,,300.0067742000101,300.0116567000514,301.50939959997777,301.50939959997777,301.5257085999474,302.0090718000429,302.24321920005605,None,0,302.25870959996246,,,VJ76,102,2025-04-01_10h16.40.559,416_EXPERIMENT_PSYCHOPY_AU2220019_AU2220225,2024.2.4,59.85418324333287,2025-04-01 10h22.03.323347 +0530,
